ax,ay,az,gx,gy,gz,label
1.999939,0.6723633,1.157715,250.1298,43.64122,-250.1374,0,10
1.999939,-0.6645508,1.018066,61.48855,63.17557,-220.8092,0,10
1.999939,-0.6152344,1.034668,250.1298,250.1298,-45.72519,0,10
1.999939,0.5629883,1.516846,250.1298,241.8779,161.5343,0,10
1.999939,0.5310059,-0.9165039,250.1298,98.70229,-250.1374,0,10
1.999939,0.4899902,1.715576,250.1298,189.2977,-13.20611,0,10
1.999939,-0.4597168,1.999939,73.48092,17.61832,-2.633588,0,10
1.999939,0.3544922,0.5119629,125.8244,148.1756,-208.0,0,10
1.999939,-0.3496094,0.802002,-73.70229,-40.20611,182.229,0,10
1.999939,-0.2861328,1.430664,-120.5573,-114.1145,200.3588,0,10
1.999939,-0.2443848,1.062744,250.1298,81.46565,43.19847,0,10
1.999939,-0.2399902,-1.137695,250.1298,228.8473,-246.0382,0,10
1.999939,0.1201172,1.999939,250.1298,222.0687,-250.1374,0,10
1.999939,0.1188965,0.9980469,65.83206,88.25954,-93.93893,0,10
1.999939,0.111084,-0.2211914,250.1298,250.1298,-30.53435,0,10
1.999939,-0.01806641,-0.375,215.2672,38.41985,-21.83206,0,10
1.999939,-0.009521484,0.2255859,191.6107,200.8931,94.90839,0,10
1.958008,0.03686523,1.288086,-156.3053,-6.068702,-206.2824,0,10
-1.935791,0.7512207,-2.0,-250.1374,-86.19847,30.66412,0,10
1.908203,0.8803711,-0.3215332,250.1298,4.89313,48.85496,0,10
1.861328,-0.7700195,-0.4333496,230.626,87.51145,-105.3206,0,10
1.840576,-0.3991699,-0.2001953,163.7634,-14.70992,-66.1145,0,10
1.799561,0.123291,-0.05273438,-250.1374,-126.0687,-88.14503,0,10
1.791504,-0.7775879,1.973145,93.16794,113.4962,-67.19847,0,10
1.783936,-0.3293457,0.3122559,205.145,70.66412,3.572519,0,10
1.778076,-0.3762207,0.5742188,172.4809,67.55725,16.0,0,10
1.774658,-0.3894043,0.1118164,211.2824,35.05344,-19.52672,0,10
1.771973,0.6721191,0.322998,250.1298,50.78626,64.74046,0,10
1.755371,-0.3703613,0.3666992,123.4504,50.46565,-91.24428,0,10
1.751709,-0.2954102,0.1765137,193.4198,27.29771,-80.83206,0,10
1.744873,-0.3374023,0.3088379,159.7786,10.10687,-16.9084,0,10
1.738281,-0.407959,0.3007813,187.0305,35.73283,-97.94656,0,10
1.734375,-0.2661133,0.2268066,250.1298,58.92366,17.71756,0,10
1.729492,-0.0690918,0.9055176,136.1985,10.20611,40.60305,0,10
1.722168,-0.3334961,0.8632813,250.1298,69.03053,74.72519,0,10
1.719482,-0.2229004,0.9643555,250.1298,60.07634,135.7481,0,10
1.717529,-0.2089844,0.3242188,250.1298,54.86259,73.43511,0,10
1.709717,0.6274414,1.999939,250.1298,184.3359,-66.00764,0,10
1.700439,-0.3708496,0.3215332,166.916,-1.625954,-32.1832,0,10
1.695557,-0.4033203,0.2116699,210.4809,65.64886,-21.12977,0,10
1.69165,-0.1535645,-0.2612305,250.1298,-0.7022901,-76.62595,0,10
1.687256,-0.1623535,0.03076172,250.1298,39.64122,-9.679389,0,10
1.665771,-0.4216309,0.982666,232.0,153.0229,-162.1221,0,10
1.657471,-0.4584961,-0.1123047,220.4046,52.51145,-7.870229,0,10
1.657227,-0.7414551,-0.4750977,110.1069,37.86259,-36.36641,0,10
1.6521,-0.5168457,0.09155273,170.1679,17.91603,-52.75573,0,10
1.650391,-0.3012695,0.5944824,170.2443,58.74809,17.90076,0,10
1.644775,-0.5358887,-0.2695313,218.0,53.99237,-158.7634,0,10
1.639893,0.9482422,0.3034668,-250.1374,-74.80153,-82.10687,0,10
1.630615,-0.09057617,-0.798584,64.83969,39.87786,32.21374,0,1
1.628662,-0.442627,-0.1625977,211.9084,6.007634,-164.4427,0,10
1.628418,-0.3825684,-0.4631348,227.3359,36.01527,-145.458,0,10
1.626709,0.06469727,-0.02539063,-5.0,20.03053,64.0458,0,1
1.625732,-0.112793,-1.051025,158.2595,-1.694656,-211.0153,0,10
1.625488,-0.2453613,1.26709,207.4351,150.6031,63.75573,0,10
1.621338,-0.296875,0.2145996,123.4351,1.641221,31.0,0,10
1.618652,-0.1657715,1.144287,230.3588,105.2137,93.99236,0,10
1.613037,-0.5974121,-0.0859375,113.6412,9.206107,-34.29008,0,10
1.612061,-0.4741211,-0.208252,219.0076,46.89313,-247.4886,0,10
1.598877,-0.166748,0.9060059,112.2977,47.0229,93.48855,0,10
1.597656,-0.4516602,0.05517578,183.0916,37.31298,-47.22901,0,10
1.594971,-0.2668457,0.4848633,243.1298,112.6947,18.38168,0,10
1.587891,-0.2583008,-0.4421387,47.34351,-13.22137,-250.1374,0,10
1.586426,-0.0324707,-0.807373,187.6565,57.38168,-155.084,0,10
1.577148,-0.07299805,-1.6875,8.702291,7.312977,27.9084,0,1
1.576416,-0.3322754,0.642334,153.7252,58.48855,-79.96183,0,10
1.575684,-0.3352051,0.5629883,142.2977,34.57252,92.99236,0,10
1.572998,-0.4558105,0.1054688,173.9847,2.954198,-21.41985,0,10
-1.566895,-0.2636719,0.3276367,-116.8168,-13.71756,221.084,0,10
1.5625,-0.1520996,0.8847656,61.32061,44.62595,112.3359,0,10
1.561523,-0.2285156,0.7097168,157.4962,93.74809,99.12977,0,10
1.55249,-0.5969238,-0.3562012,202.1603,-7.267176,-229.0153,0,10
1.552246,-0.4963379,-0.3071289,152.3053,-16.40458,-32.03817,0,10
1.551758,-0.3068848,0.03295898,189.855,59.17557,-109.9237,0,10
1.550781,-0.3349609,0.3649902,171.0687,56.77863,64.90839,0,10
1.547119,-0.09790039,-1.215088,-35.28244,7.129771,-7.450382,0,1
1.54248,-0.1794434,0.5561523,66.99236,-52.0916,180.1679,0,10
1.54248,0.1525879,0.04833984,176.0992,0.0,81.8168,0,10
1.540283,-0.4440918,0.6865234,101.6336,36.89313,39.62595,0,10
1.538818,-0.2099609,0.6708984,197.7099,49.17557,73.99236,0,10
1.536865,-0.4890137,-0.3417969,243.2977,18.12214,-40.07634,0,10
-1.536621,-0.4829102,-1.591309,190.9389,-9.366412,-120.9313,0,10
1.5354,-0.2155762,1.457764,99.8168,142.0153,94.54962,0,10
1.530029,-0.06445313,0.2983398,-159.0763,88.9771,1.129771,0,10
1.5271,0.06958008,-0.3920898,250.1298,10.27481,-6.045802,0,10
1.526855,-0.4743652,-0.1408691,196.7099,-16.93893,-82.13741,0,10
1.520264,0.8979492,-1.095215,250.1298,13.28244,-115.1374,0,10
1.519531,-0.4333496,0.05908203,193.771,-2.40458,-7.251908,0,10
1.519287,-0.4433594,0.427002,193.6488,92.1832,-21.29771,0,10
1.515381,-0.3337402,0.3588867,176.9084,6.923664,77.60305,0,10
1.514404,0.3354492,-0.1164551,250.1298,-89.98473,201.2672,0,10
1.51416,-0.7697754,1.512695,228.6183,109.9313,219.1221,0,10
1.510498,0.06396484,0.1103516,0.02290076,1.717557,4.099236,0,0
1.510254,-0.1179199,-0.2119141,22.00763,22.63359,37.70229,0,1
1.509521,-0.5795898,-0.642334,164.7023,55.00763,-150.4122,0,10
1.509033,-0.1984863,0.5917969,185.0076,66.36641,72.58778,0,10
1.504639,0.4685059,-0.9865723,250.1298,-0.9007633,-48.83969,0,10
1.501953,0.1000977,0.09130859,250.1298,56.80153,18.18321,0,10
1.490479,1.04248,-0.2233887,250.1298,58.26717,-55.66412,0,10
1.486328,-0.4260254,0.6955566,76.15267,22.10687,0.03053435,0,10
1.479736,-0.4562988,-0.4746094,213.5191,-32.9542,-228.5802,0,10
1.478516,0.7941895,0.8112793,250.1298,192.6107,78.65649,0,10
1.478027,-0.4333496,0.05737305,220.9618,23.16794,-51.85496,0,10
1.470947,-0.5,-1.037354,234.0992,101.3817,-228.2519,0,10
1.468994,-0.4899902,-0.4257813,215.084,54.30534,-199.4275,0,10
1.468262,-0.04248047,-1.075195,-79.26717,-16.07634,-3.480916,0,1
1.467773,-0.230957,-0.489502,250.1298,30.03817,-48.79389,0,10
1.466064,-0.4003906,0.1064453,181.5725,1.412214,-19.57252,0,10
1.460449,-0.3952637,-0.4360352,198.0687,3.290076,-231.8779,0,10
1.455811,-0.009521484,-1.110596,128.9618,-2.900763,-81.54962,0,10
1.455566,-0.2685547,1.470215,156.2977,44.00763,200.3512,0,10
1.455078,0.5419922,-0.8581543,92.42748,3.129771,35.74046,0,10
1.454102,-0.09594727,0.6791992,175.2977,88.87786,88.56489,0,10
1.446533,-0.1577148,0.8933105,87.90839,63.39695,161.6794,0,10
1.446289,-0.1945801,0.4956055,110.2214,17.86259,147.6565,0,10
1.444824,-0.3830566,0.2282715,177.458,21.13741,4.015267,0,10
1.444336,0.1469727,-0.3608398,14.54962,-73.21374,63.27481,0,1
1.444092,-0.06005859,-1.044434,250.1298,102.6183,-250.1374,0,10
1.443604,-0.5830078,-1.069336,66.42748,46.29008,-196.5725,0,10
1.440186,-0.2583008,0.9042969,63.57252,124.8855,143.4046,0,10
1.435303,-0.05126953,-1.216309,-21.86259,6.335878,2.503817,0,1
1.429932,-0.5537109,-0.4018555,168.7481,-18.29771,-105.2443,0,10
1.428223,0.126709,0.1062012,183.0305,-57.25954,47.91603,0,1
1.425049,0.543457,1.517578,-250.1374,66.86259,-90.39695,0,10
1.422363,-0.3017578,0.3552246,173.0458,19.92366,35.19084,0,10
1.416504,-0.2937012,0.5998535,144.313,37.00763,28.60305,0,10
1.404053,-0.2033691,0.777832,116.5343,40.73283,106.2061,0,10
1.396729,-0.1064453,-1.133301,-38.53435,-33.44275,13.61832,0,1
1.39624,-0.4052734,0.1208496,163.6183,20.23664,-26.35878,0,10
1.394043,-0.2260742,0.8447266,167.0,103.0382,66.75572,0,10
1.391602,-0.6813965,-0.1723633,175.9084,42.56488,-125.2443,0,10
1.390625,-0.3911133,-0.1391602,189.1908,-43.24427,-99.49619,0,10
1.390381,0.1499023,-0.5161133,166.4351,-24.85496,-0.8549618,0,1
1.38501,-0.08251953,-1.047607,-94.79389,18.00763,-30.73282,0,1
1.383789,0.08642578,0.1687012,20.74809,-71.48092,10.64122,0,0
1.383789,-0.0222168,0.6660156,-52.69466,1.442748,159.8702,0,10
1.376953,0.2385254,1.147949,-76.8168,-16.22901,33.63359,0,10
-1.373291,0.0007324219,-0.9362793,-19.64886,-9.908397,97.69466,0,10
1.362793,0.4199219,-0.8339844,24.35878,2.442748,-204.9466,0,10
1.359619,-0.423584,-0.4592285,148.8015,-7.687023,-223.3512,0,10
1.356201,-0.1721191,0.3708496,227.3893,-15.68702,63.85496,0,10
1.355957,0.1149902,-1.317139,-24.78626,15.58779,-16.42748,0,1
1.355469,0.4892578,0.5993652,250.1298,-40.54198,-89.35114,0,10
1.354736,-0.5539551,-0.6435547,250.1298,57.92366,-133.0992,0,10
1.35083,-0.004638672,-0.7683105,182.6565,-35.90076,-121.2748,0,10
1.349121,-0.2258301,0.5986328,123.2977,83.38168,100.0763,0,10
1.349121,-0.1518555,0.8823242,27.84733,63.56488,145.6336,0,10
1.345947,-0.05151367,-1.027588,-95.93893,-8.709924,-27.38168,0,1
1.343994,0.1303711,-1.452393,-56.29771,10.41985,13.01527,0,1
1.340576,0.04711914,-1.179443,-45.51908,17.57252,-23.47328,0,1
1.339844,-0.2912598,-1.217285,-54.36641,-33.28244,-10.66412,0,1
1.3396,-0.4404297,0.5993652,97.77863,63.86259,74.79389,0,10
1.338135,-0.2619629,-1.165283,-44.70992,-33.54962,9.763359,0,1
1.335938,-0.2272949,0.8791504,120.5878,88.17558,65.72519,0,10
1.334229,-0.439209,-0.4455566,213.4122,23.96947,-89.25954,0,10
1.331787,0.02612305,0.8862305,105.9466,43.44275,195.3893,0,10
1.331543,-0.6105957,-0.333252,198.6947,-24.87786,-56.21374,0,10
1.330078,-0.3342285,-1.003906,197.458,23.89313,-250.1374,0,10
1.328857,0.04150391,-1.110352,-54.56488,19.56489,-25.79389,0,1
1.328125,0.3015137,-0.8425293,250.1298,17.26718,-49.29008,0,10
1.327637,0.1213379,-1.409668,-43.03053,15.48092,1.198473,0,1
1.32666,-0.7094727,0.08959961,81.70229,-54.92366,-79.61069,0,10
1.326416,-0.126709,-0.4521484,-6.877862,74.80916,6.458015,0,1
1.323975,-0.03808594,-1.196777,-34.0458,-12.96947,5.290076,0,1
1.322754,-0.2458496,-1.116699,-33.83206,-9.740458,5.625954,0,1
1.321533,-0.3032227,0.5844727,101.2137,58.58779,103.5802,0,10
1.321533,-0.02172852,-1.270264,-60.51145,-2.312977,-2.648855,0,1
-1.321289,0.2709961,-0.3869629,-42.25191,-69.80916,203.687,0,10
1.319336,-0.1960449,-0.07250977,13.03053,-17.09924,-63.27481,0,1
1.317383,0.1450195,-1.010498,-138.1832,140.145,-32.0229,0,1
1.316406,-0.0456543,-1.173096,-44.58015,4.572519,-12.65649,0,1
1.315918,0.8283691,1.080566,250.1298,32.54962,-57.51908,0,10
1.315186,-0.2314453,0.7075195,-250.1374,68.47328,-23.16794,0,10
1.314941,0.07836914,-1.250977,51.01527,-29.0229,26.19084,0,1
1.312256,-0.4377441,-0.6540527,169.084,-68.77863,-211.6794,0,10
1.306396,0.4162598,0.02563477,250.1298,69.54198,-39.9084,0,10
1.304443,0.05200195,0.2770996,-40.27481,250.1298,-78.76336,0,0
1.303711,0.06103516,-1.368408,38.25954,-11.73282,25.19847,0,1
1.30249,-0.1821289,0.5158691,233.0763,26.77863,29.45802,0,10
1.301514,-0.03295898,-0.8203125,-100.0534,19.01527,-38.77099,0,1
1.29834,0.05371094,-1.298828,64.58778,-44.29771,50.49618,0,1
1.297607,0.4086914,0.248291,-29.69466,54.0,-17.67175,0,1
1.295654,0.5622559,0.8359375,250.1298,110.4275,197.4657,0,10
1.291748,-0.0007324219,-1.067139,-49.89313,6.732824,-14.58779,0,1
1.282471,0.06958008,-1.21582,-51.25954,22.0687,-20.62595,0,1
1.28125,0.046875,-1.666504,-29.43511,-10.89313,16.86259,0,1
1.280762,-0.02490234,-1.045654,70.71756,-58.80153,68.26717,0,1
1.280518,0.1225586,-1.18335,-151.3664,107.0153,-31.94657,0,1
1.280029,-0.03637695,-1.058594,-49.29771,-13.74809,-27.36641,0,1
1.273193,0.02905273,-1.163086,-66.42748,37.70992,-33.64122,0,1
1.270752,0.02587891,-1.208252,26.77099,-10.22137,30.72519,0,1
1.269775,-0.6855469,-0.4326172,70.03817,-72.59542,-230.6947,0,10
1.269775,0.02148438,-1.087646,-34.33588,4.160306,1.335878,0,1
1.267822,-0.1518555,1.017822,42.31298,74.96183,131.2214,0,10
1.266113,-0.5324707,-0.7880859,145.2519,-19.47328,-218.4809,0,10
1.265381,-0.3625488,1.136719,210.1756,133.6031,-75.9313,0,10
1.262939,0.1630859,-1.565186,-56.09924,17.01527,7.961832,0,1
1.259521,0.1311035,-1.489746,10.93893,2.664122,21.41221,0,1
1.252197,0.3144531,0.3664551,-11.37405,-25.64886,33.0687,0,1
1.249756,0.1164551,-1.337402,-56.0,20.51145,0.9847328,0,1
1.248047,-0.6313477,-0.6760254,85.53435,-28.39695,-170.5038,0,10
1.248047,0.07275391,-1.240234,-40.59542,15.00763,-15.71756,0,1
1.244873,-0.498291,1.941162,89.96947,75.39695,216.4275,0,10
1.244873,-0.1821289,-0.934082,126.6107,35.98473,-250.1374,0,10
1.243164,0.02587891,-1.275635,33.44275,-10.64122,40.55725,0,1
1.242676,0.2102051,1.417236,-250.1374,119.458,-30.43511,0,10
1.241211,0.137207,-1.345947,-74.78626,27.76336,-9.343512,0,1
1.239746,-0.2373047,0.5063477,163.2366,9.702291,51.13741,0,10
1.234375,-0.1911621,0.5244141,170.8473,52.66412,70.48092,0,10
1.233398,-0.2038574,-1.148926,19.28244,-2.847328,41.79389,0,1
1.233398,-0.02099609,-0.8952637,-72.67175,-5.374046,-22.0458,0,1
1.233154,0.1813965,1.143311,-250.1374,96.35114,-27.9084,0,10
-1.23291,-0.01660156,-2.0,-250.1374,-143.3053,116.7634,0,10
1.227539,0.6750488,-0.3981934,-250.1374,-18.54962,-105.4809,0,10
1.224609,0.1911621,-1.373535,89.12214,-58.16794,50.19847,0,1
1.222656,0.392334,0.2058105,-241.8244,-29.17557,-66.46565,0,10
1.220459,-0.01904297,-0.6289063,-101.5115,19.89313,-38.43512,0,1
1.218262,0.1513672,0.7927246,-182.5725,73.21374,-93.57252,0,10
1.215332,-0.1894531,-0.9165039,-65.03817,-18.38931,-9.343512,0,1
1.2146,-0.08056641,-0.9094238,-74.10687,4.725191,-20.08397,0,1
1.213135,-0.01416016,-1.070313,-83.76336,5.40458,-3.137405,0,1
1.211914,-0.03515625,-0.9333496,-82.9542,30.62595,-54.17557,0,1
1.21167,-0.08203125,0.9382324,48.76336,18.52672,193.3053,0,10
1.206543,0.1777344,-0.2287598,207.458,-105.8473,36.96183,0,1
1.206299,0.1247559,-1.175049,63.64122,-36.67939,37.0687,0,1
1.206299,0.1101074,-1.256348,-59.49618,33.8855,-22.87023,0,1
1.20459,0.4382324,0.7387695,90.82442,-19.77863,38.07634,0,10
1.201904,-0.6660156,-0.2028809,181.6183,7.267176,-154.6031,0,10
1.200928,-0.02783203,-0.9116211,-67.0229,16.44275,-34.27481,0,1
1.200684,0.5874023,-1.010742,250.1298,200.1985,-250.1374,0,10
1.199463,0.1303711,-1.011719,82.16794,-40.45802,31.01527,0,1
1.19873,-0.08398438,-0.8530273,-91.13741,11.41985,-33.55725,0,1
1.197266,0.3505859,-1.140381,185.5802,-98.89313,39.62595,0,10
1.195557,0.6904297,0.980957,250.1298,107.2137,102.0,0,10
1.19458,0.03588867,-1.480713,48.39695,-13.68702,27.08397,0,1
1.194092,0.5380859,0.4606934,250.1298,-4.022901,-92.79389,0,10
1.190186,0.1542969,-1.591797,-56.0687,30.48855,-8.290076,0,1
1.189453,0.1474609,-1.346191,-84.48092,40.03817,-21.37405,0,1
1.188477,0.1425781,-1.260742,-86.34351,37.61832,-12.19847,0,1
1.187988,-0.463623,0.2758789,150.3512,6.832061,-60.55725,0,10
1.186523,0.1462402,-1.474609,0.6564885,2.847328,13.16031,0,1
1.182373,0.1501465,-1.324707,-53.36641,24.69466,-5.473282,0,1
1.182373,0.03564453,-1.122559,-74.19847,33.58015,-31.60305,0,1
1.182129,0.1520996,-1.599365,30.75573,-16.33588,28.69466,0,1
1.178955,0.008789063,-1.114502,96.61069,16.79389,8.648855,0,1
1.177734,-0.05737305,0.1152344,-39.96183,41.27481,-32.61069,0,10
1.17749,-0.1647949,-0.07250977,6.389313,13.50382,21.77863,0,1
1.177002,0.0168457,0.9912109,-50.22137,116.313,171.1145,0,10
1.176514,-0.1975098,-1.147949,-28.15267,3.007634,-9.641221,0,1
-1.17627,-0.1208496,-2.0,-191.4886,-80.83206,210.0458,0,10
1.175781,-0.01342773,-1.125977,-11.96947,32.66412,4.854962,0,1
1.175049,0.09838867,-1.396973,-29.14504,6.221374,10.14504,0,1
1.174316,0.08691406,-1.181152,-79.66412,43.30534,-28.46565,0,1
1.17334,-0.1054688,0.6105957,203.3969,23.77863,-32.74809,0,10
1.172852,0.3823242,0.08935547,-40.65649,65.17558,2.244275,0,1
1.171875,0.1162109,-1.148438,-91.62595,42.86259,-28.99237,0,1
1.171387,-0.5749512,-0.317627,112.3817,-13.0229,-218.9924,0,10
1.171143,-0.007324219,1.21167,-170.0076,90.29771,-96.84733,0,10
1.169189,0.6748047,0.08618164,166.0992,-9.717557,-19.29771,0,10
1.167725,0.02270508,-1.129883,72.8855,-23.18321,39.72519,0,1
1.16626,-0.04199219,-0.9765625,-88.41985,8.274809,-20.9084,0,1
1.165527,-0.09765625,-0.5817871,-146.7939,-59.03053,-29.83206,0,1
1.162109,-0.185791,0.4772949,199.3282,76.91603,4.366412,0,10
1.159424,0.06762695,-1.108154,-2.198473,1.442748,23.31298,0,1
1.158936,0.0,-0.927002,63.0,-52.51145,83.51908,0,1
1.158691,0.1201172,-1.270508,-97.26717,35.41221,-29.48855,0,1
1.157715,-0.5625,-1.062256,194.8931,22.03817,-250.1374,0,10
1.156006,0.5383301,-2.0,-250.1374,-214.1298,53.65649,0,10
1.154297,0.05029297,-0.9902344,-77.99236,32.16794,-34.17557,0,1
1.152588,0.3742676,0.2414551,-67.98473,-79.9313,-5.625954,0,1
1.1521,-0.08032227,-0.03125,31.81679,61.10687,-51.72519,0,1
1.151855,-0.07543945,-0.8762207,79.00764,-35.76336,65.82442,0,1
1.151123,-0.0007324219,-0.895752,-89.34351,28.24427,-32.8855,0,1
1.14502,0.1704102,1.58252,185.7557,-33.64122,-89.01527,0,10
1.144287,0.1437988,-1.117188,-83.09924,34.45802,-22.81679,0,1
1.144043,0.08764648,1.480713,164.6412,88.03817,206.0534,0,10
1.144043,0.07495117,-0.7177734,250.1298,-10.51145,-32.61069,0,10
1.142822,-0.1652832,-0.517334,-30.62595,-15.48855,-64.51908,0,1
1.141113,0.01708984,-1.401611,53.08397,-13.81679,33.23664,0,1
1.140869,0.002441406,-1.0,88.20611,-31.32061,67.16031,0,1
1.139648,0.6188965,1.870605,250.1298,86.1832,-40.43512,0,10
-1.138916,-0.1115723,-0.3950195,-250.1374,-39.29008,20.30534,0,10
1.138672,0.01953125,-1.238525,47.10687,-15.36641,51.73283,0,1
1.138672,-0.01708984,-0.02050781,0.4122138,0.519084,1.801527,0,0
1.135986,0.1572266,-1.880615,-18.07634,-18.19847,20.21374,0,1
1.135498,0.0534668,0.04492188,20.74046,-56.55725,2.801527,0,1
1.135254,-0.3061523,0.4333496,183.5954,9.755725,52.0229,0,10
1.132568,0.008300781,-0.8291016,-85.07633,36.35115,-48.9313,0,1
1.131592,-0.3625488,1.19165,64.19084,73.52672,81.9313,0,10
1.130859,0.01171875,-0.09594727,-0.07633588,-13.09924,-2.770992,0,1
1.129639,-0.1066895,0.1174316,32.79389,29.03053,19.19847,0,1
1.126953,-0.09667969,0.9084473,83.16031,103.8015,135.5114,0,10
1.125977,-0.01708984,-0.08056641,-0.06870229,-5.549618,1.580153,0,10
1.125,-0.4189453,-1.04126,-192.8931,47.55725,-112.2519,0,10
1.124512,-0.1889648,-0.7145996,-95.0229,-4.89313,-59.89313,0,1
1.124023,0.02832031,-0.1044922,2.290076,-27.41221,-16.05343,0,10
1.123291,-0.177002,-0.7348633,-17.12214,-15.77099,-47.36641,0,1
1.123047,0.05249023,-1.079346,60.96183,-17.58779,40.73283,0,1
1.122314,0.00390625,0.8225098,-80.64122,7.748092,193.9008,0,10
1.121582,-0.2612305,0.53125,-32.00763,6.961832,215.4809,0,10
1.121582,-0.177002,1.136475,215.7252,175.7176,179.1908,0,10
1.121094,0.3305664,1.999939,148.1221,11.26718,-41.98473,0,10
1.12085,1.166504,-0.2687988,250.1298,144.9542,-212.2443,0,10
1.12085,0.05541992,-0.9936523,92.69466,-35.90076,52.67176,0,1
-1.119141,-0.4470215,1.644775,-250.1374,93.61069,119.9008,0,10
1.117188,0.130127,0.09765625,1.358779,-13.54198,9.870229,0,10
1.11499,0.001953125,0.01293945,16.24427,-20.71756,-9.114504,0,1
1.113525,-0.08813477,1.124512,-17.34351,88.38931,121.855,0,10
1.110107,0.1506348,-1.667969,70.75572,-46.72519,34.22137,0,1
1.109375,0.08813477,-0.6503906,149.6641,-71.0458,52.34351,0,1
1.109131,-0.005615234,1.813477,220.3435,12.65649,-36.48092,0,10
1.108398,-0.7233887,0.1474609,-146.9771,86.36641,-42.85496,0,10
1.108398,0.2893066,1.111572,250.1298,-60.36641,-64.78626,0,10
1.107666,0.1037598,-0.3964844,111.9008,-63.06107,59.41221,0,1
1.107666,0.06982422,1.661865,-190.687,54.99237,74.71756,0,10
1.107178,0.07421875,-1.123047,109.229,-43.64885,50.74046,0,1
1.107178,0.02075195,-0.09521484,118.0916,44.51145,-38.25191,0,1
1.106934,-0.02978516,-0.1135254,0.06870229,-1.885496,2.824427,0,0
1.105225,-0.01391602,-0.01806641,0.3129771,1.580153,0.9923664,0,0
1.104004,-0.01733398,-0.02905273,0.1832061,2.427481,0.5038168,0,1
1.102295,0.9411621,0.3481445,-250.1374,30.9084,17.07634,0,10
1.102051,0.1914063,1.179932,250.1298,106.855,116.6412,0,10
1.101074,-0.01464844,-0.04296875,0.259542,1.801527,1.152672,0,0
1.099121,0.01708984,-0.8200684,-105.8321,51.24427,-48.0916,0,1
1.0979,-0.05102539,-0.6599121,-41.0229,3.480916,-6.984733,0,1
1.097656,-0.009277344,-0.04248047,0.2137404,1.839695,1.083969,0,1
1.097412,0.03442383,-0.8312988,76.03053,-19.08397,46.33588,0,1
1.096924,-0.06616211,-0.7695313,-62.35878,-15.03053,-13.17557,0,1
1.09668,-0.6577148,-0.109375,113.1145,-13.1145,-161.1679,0,10
1.095947,-0.01293945,-0.04101563,0.4580153,1.664122,1.221374,0,0
1.095703,0.1774902,0.2302246,142.6565,-37.22137,18.33588,0,1
1.095703,0.1391602,-1.200928,-102.0305,44.41221,-30.46565,0,1
1.095459,0.5422363,-2.0,5.961832,-108.0153,-250.1374,0,10
1.095459,0.2023926,0.0402832,156.0,-66.229,39.89313,0,1
1.094238,0.03344727,-1.158203,50.83969,-15.71756,42.40458,0,1
1.093018,0.6247559,-1.571289,244.4046,-12.46565,-15.81679,0,10
1.093018,-0.08447266,0.8481445,25.32061,35.48092,188.2214,0,10
1.091309,0.06567383,-0.1506348,-94.84733,11.01527,-9.396947,0,1
1.091309,-0.004150391,-0.04638672,0.09923664,1.900763,1.244275,0,0
1.091064,0.03637695,-0.9492188,-100.0916,46.50382,-40.33588,0,1
1.090332,0.3422852,0.07128906,-11.22137,-0.7099237,9.297709,0,1
1.088867,-0.02832031,-0.1052246,0.4274809,1.732824,1.015267,0,0
1.088867,-0.001464844,-0.02026367,0.2671756,1.816794,0.9236641,0,0
1.088623,-0.01464844,-0.03393555,0.2977099,1.717557,0.8473283,0,0
1.088379,-0.01489258,-0.046875,0.3969466,1.473282,1.022901,0,0
1.088379,-0.01049805,-0.04418945,0.3129771,1.274809,1.10687,0,0
1.088379,-0.003417969,-0.03857422,0.2748091,1.580153,1.145038,0,0
1.088135,0.03344727,-0.03515625,0.4274809,1.908397,1.259542,0,0
1.088135,-0.03051758,-0.8486328,-107.6565,27.17557,-42.40458,0,1
1.087891,-0.1569824,0.08886719,-50.86259,44.59542,17.08397,0,10
1.08667,0.1101074,-0.7084961,142.6947,-85.15267,50.96947,0,1
1.086426,0.1105957,0.3515625,14.29008,-122.2672,-45.15267,0,10
1.086182,-0.05517578,-0.527832,-115.4657,28.54198,-45.92366,0,1
1.085449,0.02026367,-0.7905273,-198.7863,113.0,-44.21374,0,1
1.084717,-0.01904297,-0.03442383,0.09923664,1.854962,0.9389313,0,0
1.08374,-0.01782227,-0.03076172,0.4122138,1.633588,0.8625955,0,0
1.083252,-0.0004882813,-0.04589844,0.2671756,1.549618,1.40458,0,0
1.08252,-0.7006836,-0.3701172,108.1985,37.49618,-183.9313,0,10
1.08252,-0.007568359,-0.03662109,0.3053435,1.832061,0.9770992,0,0
1.082275,0.1938477,-1.096191,65.31298,-22.63359,30.25191,0,1
1.082275,-0.01000977,-0.03637695,0.2900764,1.610687,1.198473,0,0
1.082031,-0.1291504,0.189209,-43.25954,96.38931,22.76336,0,10
1.081787,-0.0002441406,-0.015625,0.1145038,1.59542,0.961832,0,1
1.081543,-0.01318359,-0.03344727,0.3435115,1.656489,0.9923664,0,0
1.081543,-0.009277344,-0.03540039,0.4122138,1.610687,1.290076,0,0
1.081299,0.06152344,-1.437256,146.9924,116.9466,-250.1374,0,10
1.080811,-0.02563477,-0.0715332,0.2137404,7.564886,3.206107,0,10
1.080811,-0.01342773,-0.03100586,0.3587786,1.549618,1.152672,0,0
1.080811,0.004150391,-0.03833008,0.351145,1.557252,1.0,0,0
1.080566,-0.005859375,-0.03149414,0.2213741,1.70229,0.9770992,0,0
1.080322,-0.008544922,-0.03442383,0.259542,1.709924,0.8167939,0,0
1.080322,-0.0078125,-0.02978516,0.351145,1.541985,1.068702,0,0
1.080078,-0.0078125,-0.03955078,0.1908397,1.641221,1.229008,0,0
1.080078,-0.007324219,-0.046875,0.351145,1.801527,1.129771,0,0
1.079834,0.0007324219,-0.03369141,0.4503817,1.671756,1.351145,0,0
1.07959,0.1906738,-1.451172,30.44275,-18.99237,21.0458,0,1
1.07959,-0.1364746,-0.09643555,13.69466,93.99236,-12.93893,0,1
1.07959,-0.01123047,-0.04443359,0.2366412,1.580153,1.022901,0,0
1.079346,-0.01171875,-0.04101563,0.3435115,1.656489,1.129771,0,0
1.079346,-0.01171875,-0.03198242,0.1832061,1.70229,0.8931297,0,0
1.079102,-0.01196289,-0.03222656,0.3282443,1.847328,0.9847328,0,1
1.079102,-0.009765625,-0.03320313,0.3816794,1.580153,0.9770992,0,0
1.079102,-0.006103516,-0.04760742,0.2671756,1.70229,0.8473283,0,0
1.079102,-0.004150391,-0.03076172,0.3129771,1.793893,1.038168,0,0
1.079102,0.0009765625,-0.03637695,0.3664122,1.717557,0.9160305,0,0
1.078857,-0.01147461,-0.0402832,0.3435115,1.679389,1.0,0,0
1.078857,-0.01025391,-0.0324707,0.2366412,1.725191,1.114504,0,0
1.078857,-0.009521484,-0.01098633,8.312977,2.458015,1.541985,0,1
1.078857,-0.007568359,-0.03588867,0.2519084,1.801527,1.122137,0,0
1.078857,-0.006103516,0.002685547,0.2290076,2.022901,1.10687,0,0
1.078857,-0.004394531,-0.02026367,0.1755725,1.442748,1.030534,0,0
1.078857,0.003173828,-0.02319336,0.4961832,1.78626,0.9847328,0,0
1.078613,-0.01000977,-0.03710938,0.3053435,1.641221,1.091603,0,0
1.078613,-0.004638672,-0.03710938,0.3587786,1.618321,0.9770992,0,0
1.078613,0.0,-0.0390625,0.3206107,1.755725,1.160305,0,0
1.078369,0.3181152,0.8742676,250.1298,48.91603,7.641222,0,10
1.078369,-0.01123047,-0.04370117,0.3206107,1.755725,0.9465649,0,0
1.078369,-0.009521484,-0.04467773,0.4198473,1.175573,1.137405,0,0
1.078369,-0.007568359,-0.05078125,0.2900764,1.641221,0.9541985,0,0
1.078369,-0.007324219,-0.03735352,0.1984733,1.694656,1.206107,0,1
1.078369,-0.003173828,-0.0534668,0.1221374,1.557252,1.053435,0,0
1.078369,-0.002685547,-0.03857422,0.5725191,1.801527,0.8854962,0,0
1.078125,-0.01513672,-0.04370117,0.389313,1.832061,1.274809,0,0
1.078125,-0.004394531,-0.04589844,0.3282443,1.80916,1.053435,0,0
1.077881,-0.01708984,-0.04394531,0.2977099,1.648855,0.9465649,0,0
1.077881,-0.01513672,-0.03100586,0.1145038,1.679389,0.8854962,0,0
1.077881,-0.01074219,-0.03735352,0.1374046,1.480916,0.961832,0,0
1.077881,-0.006347656,-0.03759766,0.3664122,1.961832,1.137405,0,1
1.077637,-0.5478516,-0.02441406,102.1527,-16.13741,-143.8473,0,10
1.077637,-0.008544922,-0.03979492,0.3816794,1.625954,1.236641,0,0
1.077637,-0.003173828,-0.04541016,0.2442748,1.641221,1.045802,0,0
1.077637,0.0,-0.0378418,0.1832061,1.694656,1.068702,0,0
1.077393,-0.01611328,-0.04907227,0.3664122,1.374046,1.183206,0,0
1.077393,-0.009277344,-0.04272461,0.2366412,1.740458,0.9847328,0
1.077393,-0.006835938,-0.03881836,0.2748091,1.923664,1.160305,0,0
1.077393,0.002197266,-0.05541992,0.2519084,1.641221,1.068702,0,0
1.077148,-0.01171875,-0.04077148,0.2519084,1.740458,1.129771,0,0
1.077148,-0.009521484,-0.04223633,0.1984733,1.656489,1.099237,0
1.077148,-0.005371094,-0.04638672,0.389313,1.709924,1.137405,0,0
1.077148,-0.005126953,-0.02856445,0.2977099,1.717557,1.099237,0,1
1.077148,-0.004882813,-0.04101563,0.2366412,1.648855,1.045802,0,0
1.077148,-0.00390625,-0.0402832,0.2977099,1.793893,1.145038,0,0
1.077148,-0.003173828,-0.03369141,0.1450382,1.656489,1.007634,0,0
1.076904,-0.1435547,-0.5966797,82.49619,14.44275,57.51145,0,1
1.076904,-0.1079102,0.8791504,-83.38931,67.23664,121.7786,0,10
1.076904,-0.008789063,-0.04516602,0.1679389,1.656489,0.9770992,0,0
1.076904,-0.008056641,-0.04199219,0.2213741,1.916031,0.9312977,0,0
1.07666,0.08666992,-0.5080566,141.1908,-70.85497,53.1145,0,1
1.07666,-0.02978516,-0.07958984,0.4045802,1.251908,0.9007633,0,10
1.07666,-0.01489258,-0.03881836,0.1603053,1.618321,1.091603,0
1.07666,-0.01367188,-0.04614258,0.4122138,1.732824,0.8854962,0,0
1.07666,-0.01123047,-0.03662109,0.351145,1.51145,1.145038,0,0
1.07666,-0.009277344,-0.03100586,0.480916,1.671756,1.099237,0,0
1.07666,-0.009033203,-0.03808594,0.1832061,1.572519,1.129771,0,0
1.07666,-0.009033203,-0.02783203,0.2977099,1.534351,0.9236641,0,0
1.07666,-0.0078125,-0.04052734,0.1145038,1.717557,1.091603,0,0
1.07666,-0.0078125,-0.03271484,0.3129771,1.748092,1.045802,0,0
1.07666,-0.006347656,-0.03662109,0.1755725,1.572519,1.030534,0,0
1.07666,-0.006347656,0.009521484,0.4045802,1.755725,0.8549618,0,0
1.07666,-0.006103516,-0.05322266,0.2137404,1.648855,0.9923664,0,0
1.07666,-0.006103516,-0.04174805,0.2442748,1.610687,1.053435,0,0
1.07666,-0.004150391,-0.03442383,0.2061069,1.916031,1.083969,0,0
1.07666,-0.003662109,-0.04516602,0.1984733,1.717557,1.038168,0,0
1.07666,-0.003173828,-0.0144043,0.3587786,1.412214,1.022901,0,0
1.076416,-0.009277344,-0.03979492,0.2519084,1.610687,1.076336,0,0
1.076416,-0.008544922,-0.0456543,0.351145,1.603053,1.091603,0,0
1.076416,-0.008544922,-0.03540039,0.2366412,1.801527,1.099237,0,0
1.076416,-0.008056641,-0.03662109,0.2671756,1.854962,0.8625955,0,0
1.076416,-0.0078125,-0.04150391,0.2290076,1.763359,1.022901,0,0
1.076416,-0.006835938,-0.03100586,0.3129771,1.572519,1.007634,0,0
1.076416,-0.006103516,-0.03540039,0.1603053,1.625954,0.961832,0,0
1.076416,-0.005126953,-0.0390625,0.3664122,1.694656,1.0,0,0
1.076416,-0.002197266,-0.03588867,0.2366412,1.610687,0.9160305,0,0
1.076416,0.0007324219,-0.04516602,0.2366412,1.687023,1.030534,0,0
1.076172,0.1755371,-0.002441406,131.2519,-56.68702,35.41985,0,1
1.076172,-0.02514648,-0.09692383,0.351145,1.793893,1.259542,0,10
1.076172,-0.01586914,-0.03808594,0.2290076,1.572519,1.114504,0,0
1.076172,-0.009521484,-0.0402832,0.3816794,1.641221,0.9923664,0,0
1.076172,-0.006835938,-0.04760742,0.351145,1.801527,1.076336,0,0
1.076172,-0.004638672,-0.04443359,0.3435115,1.854962,0.8625955,0,0
1.076172,-0.003417969,-0.03857422,0.2290076,1.80916,1.030534,0,1
1.076172,-0.0007324219,-0.03955078,0.3740458,1.709924,1.0,0,0
1.076172,0.0007324219,-0.03466797,0.4732824,1.572519,1.099237,0,0
1.075928,-0.02783203,-0.08203125,0.3358779,2.458015,1.358779,0,10
1.075928,-0.01123047,-0.02978516,0.3435115,1.610687,1.114504,0,0
1.075928,-0.01074219,-0.03271484,0.3587786,1.541985,1.221374,0,0
1.075928,0.009765625,-0.05371094,0.0610687,1.709924,0.9083969,0,0
1.075928,-0.008789063,-0.04077148,0.3435115,1.80916,1.030534,0,0
1.075928,-0.005126953,-0.04052734,0.3129771,1.816794,0.9083969,0
1.075928,-0.004394531,-0.04077148,0.2137404,1.679389,0.8854962,0,0
1.075928,-0.003173828,-0.03588867,0.2519084,1.503817,1.145038,0,0
1.075928,-0.0004882813,-0.03686523,0.3587786,1.557252,1.045802,0,1
1.075684,-0.2021484,0.7487793,-18.89313,64.34351,180.4809,0,10
1.075684,-0.01049805,-0.02978516,0.3282443,1.564886,0.9770992,0,0
1.075684,-0.008300781,-0.04833984,0.3053435,1.740458,1.0,0,0
1.075684,-0.008300781,-0.03515625,0.1984733,1.778626,0.961832,0,0
1.075684,-0.005371094,-0.04077148,0.1374046,1.603053,1.10687,0,0
1.075684,-0.00390625,-0.04711914,0.3740458,1.549618,0.8625955,0,0
1.075684,-0.003662109,-0.04003906,0.129771,1.572519,1.129771,0,0
1.075684,-0.002685547,-0.03613281,0.3664122,1.740458,0.9312977,0,0
1.075439,-0.01391602,-0.03125,0.0,1.80916,1.206107,0,0
1.075439,-0.01220703,-0.0324707,0.1374046,1.770992,1.030534,0,0
1.075439,-0.01098633,-0.03930664,0.4503817,1.687023,1.022901,0,0
1.075439,-0.009521484,-0.03808594,0.2519084,1.618321,1.083969,0,0
1.075439,-0.009277344,-0.02001953,0.1603053,1.816794,1.10687,0,1
1.075439,-0.009033203,-0.04345703,0.3740458,1.625954,1.045802,0,0
1.075439,-0.009033203,-0.03808594,0.3129771,1.641221,1.045802,0,1
1.075439,-0.006347656,-0.05249023,0.4732824,1.503817,0.9236641,0,0
1.075439,-0.005615234,-0.03662109,0.3816794,1.755725,0.9541985,0,0
1.075439,-0.004882813,-0.03442383,0.3587786,1.770992,0.832061,0,0
1.075439,-0.004394531,-0.03833008,0.2290076,1.671756,0.9160305,0,0
1.075439,0.00390625,-0.0390625,0.3053435,1.625954,1.068702,0
1.075439,-0.003662109,-0.05200195,0.129771,1.671756,1.167939,0,0
1.075439,-0.002929688,-0.04443359,0.4427481,1.671756,1.045802,0,0
1.075439,-0.002197266,-0.8762207,-84.32825,35.29771,-38.0458,0,1
1.075195,-0.04052734,-0.08837891,0.1755725,4.389313,1.610687,0,10
1.075195,-0.02734375,-0.08569336,0.129771,1.290076,1.19084,0,10
1.075195,-0.01123047,-0.04418945,0.2519084,1.862595,0.7862596,0,0
1.075195,-0.01123047,-0.04394531,0.2977099,1.633588,0.9694656,0,0
1.075195,-0.009033203,-0.03564453,0.2061069,1.625954,1.137405,0,0
1.075195,-0.008789063,-0.03710938,0.3587786,1.664122,1.167939,0,0
1.075195,-0.008544922,-0.03735352,0.2061069,1.664122,1.030534,0,0
1.075195,-0.0078125,-0.0324707,0.3664122,1.778626,1.175573,0,0
1.075195,-0.007568359,-0.06835938,0.1374046,1.816794,0.9236641,0,0
1.075195,-0.006835938,-0.03955078,0.1984733,1.541985,0.9389313,0,0
1.075195,-0.005126953,-0.03540039,0.2366412,1.572519,1.068702,0,0
1.075195,-0.004882813,-0.03759766,0.4656488,1.656489,1.167939,0,0
1.075195,-0.00390625,-0.03198242,0.3358779,1.679389,0.9770992,0,0
1.075195,-0.001464844,-0.04418945,0.3129771,1.70229,1.091603,0,0
1.074951,-0.02172852,-0.08984375,0.2366412,1.580153,1.236641,0,10
1.074951,-0.01391602,-0.03369141,0.5496183,1.725191,1.083969,0,0
1.074951,-0.01000977,-0.04199219,0.3282443,1.778626,1.061069,0,0
1.074951,-0.009765625,-0.04858398,0.2900764,1.656489,1.022901,0,0
1.074951,-0.009765625,-0.03540039,0.4427481,1.740458,1.122137,0,0
1.074951,-0.008300781,-0.0390625,0.3358779,1.625954,1.030534,0,0
1.074951,-0.007080078,-0.04077148,0.3053435,1.755725,1.152672,0,0
1.074951,-0.006347656,-0.04907227,0.4122138,1.51145,1.206107,0,0
1.074951,-0.006103516,-0.04077148,0.09923664,1.709924,1.21374,0,0
1.074951,-0.004638672,-0.0480957,0.2824428,1.618321,1.061069,0
1.074951,-0.004394531,-0.03637695,0.2061069,1.687023,0.9312977,0,1
1.074951,-0.004150391,-0.04077148,0.2442748,1.572519,0.9694656,0,0
1.074951,-0.002685547,-0.04516602,0.1374046,1.465649,1.061069,0,0
1.074951,-0.001953125,-0.03393555,0.3664122,1.572519,1.160305,0,0
1.074951,-0.001220703,-0.05371094,0.2213741,1.618321,0.9236641,0,0
1.074707,-0.01538086,-0.03027344,0.1679389,1.656489,1.152672,0,0
1.074707,-0.01489258,-0.04760742,0.4198473,1.48855,1.083969,0,0
1.074707,-0.01025391,-0.03320313,0.3740458,1.839695,1.099237,0,1
1.074707,-0.009765625,-0.04296875,0.2061069,1.694656,1.160305,0,0
1.074707,-0.008789063,-0.03369141,0.2137404,1.755725,1.0,0,0
1.074707,-0.008789063,-0.03076172,0.2137404,1.587786,1.10687,0,0
1.074707,0.004150391,-0.04589844,0.3816794,1.580153,1.21374,0,0
1.074707,-0.002685547,-0.05249023,0.1679389,1.885496,0.9847328,0,1
1.074463,-0.01196289,-0.03466797,0.2671756,1.717557,0.6335878,0
1.074463,-0.01025391,-0.03369141,0.3740458,1.687023,0.9541985,0,0
1.074463,-0.01025391,-0.03344727,0.1145038,1.755725,0.8625955,0,0
1.074463,-0.009033203,-0.04174805,0.2213741,1.580153,0.9312977,0,0
1.074463,-0.008300781,-0.03881836,0.3206107,1.633588,0.870229,0,0
1.074463,-0.007568359,-0.02099609,0.2213741,1.519084,0.9236641,0,1
1.074463,-0.007324219,-0.0378418,0.4045802,1.458015,1.083969,0,0
1.074463,-0.006835938,-0.04589844,0.3740458,1.419847,1.175573,0,0
1.074463,-0.006347656,-0.03613281,0.1603053,1.687023,1.038168,0,0
1.074463,0.0009765625,-0.05200195,0.1984733,1.748092,1.229008,0
1.074463,-0.0009765625,-0.0402832,0.3053435,1.450382,1.007634,0
1.074463,-0.0009765625,-0.02929688,0.2366412,1.694656,1.091603,0,0
1.074463,0.0007324219,-0.05004883,0.3435115,1.694656,1.083969,0,0
1.074219,-0.01269531,-0.03515625,0.3053435,1.656489,0.9847328,0,0
1.074219,-0.01147461,-0.01586914,0.259542,1.748092,1.030534,0,0
1.074219,-0.01049805,-0.03735352,0.2519084,1.519084,1.038168,0,0
1.074219,-0.009765625,-0.04174805,0.3435115,1.656489,1.061069,0,0
1.074219,-0.007324219,-0.05395508,0.2137404,2.145038,1.091603,0,0
1.074219,-0.007080078,-0.03735352,0.4503817,1.610687,1.0,0,0
1.074219,-0.006835938,-0.03662109,0.1832061,1.732824,0.9847328,0,0
1.074219,0.005615234,-0.03662109,0.1450382,1.572519,1.068702,0,0
1.074219,-0.004638672,-0.03808594,0.4351145,1.572519,1.19084,0,0
1.074219,-0.004394531,-0.04833984,0.2748091,1.564886,1.152672,0,0
1.074219,-0.004394531,-0.03735352,0.2977099,1.465649,1.21374,0,0
1.074219,0.002685547,-0.03662109,0.2442748,1.717557,0.9083969,0,0
1.074219,-0.001708984,-0.04125977,0.2671756,1.748092,1.175573,0,0
1.074219,-0.001464844,-0.04125977,0.3816794,1.59542,0.8473283,0,0
1.073975,-0.144043,-0.8168945,-86.13741,-7.580153,-21.19084,0,1
1.073975,-0.01660156,-0.03710938,0.3282443,1.793893,0.8244275,0,0
1.073975,-0.01489258,-0.03320313,0.1984733,1.541985,0.9770992,0,0
1.073975,-0.01123047,-0.03857422,0.2977099,1.641221,0.961832,0,0
1.073975,-0.009765625,-0.03881836,0.2748091,1.603053,1.061069,0,1
1.073975,-0.008789063,-0.04418945,0.2748091,1.618321,1.183206,0,0
1.073975,-0.008056641,-0.04589844,0.2290076,1.793893,0.9923664,0,0
1.073975,-0.008056641,-0.03979492,0.2366412,1.564886,1.061069,0,0
1.073975,-0.006103516,-0.04541016,0.2671756,1.70229,0.9847328,0,0
1.073975,-0.005859375,-0.03662109,0.3282443,1.664122,1.053435,0,0
1.073975,-0.005126953,-0.03344727,0.2137404,1.656489,1.229008,0,0
1.073975,-0.004882813,-0.03930664,0.3435115,1.625954,0.9465649,0,0
1.073975,-0.004394531,-0.04199219,0.4885496,1.679389,1.221374,0,0
1.073975,0.002441406,-0.03686523,0.3587786,1.877863,1.076336,0,0
1.07373,-0.02929688,-0.09179688,0.4580153,0.8167939,1.053435,0,10
1.07373,-0.02661133,-0.07104492,0.1832061,1.381679,0.9694656,0,10
1.07373,-0.01416016,-0.04077148,0.4885496,1.541985,1.091603,0,1
1.07373,-0.01220703,-0.04516602,0.3664122,1.587786,0.9541985,0,0
1.07373,-0.01220703,-0.03491211,0.2213741,1.748092,0.9083969,0,0
1.07373,-0.009277344,-0.05126953,0.1908397,1.59542,1.076336,0,0
1.07373,-0.008056641,-0.04125977,0.3053435,1.526718,1.022901,0,0
1.07373,-0.007568359,-0.03759766,0.3358779,1.671756,1.114504,0,0
1.07373,-0.007568359,-0.03686523,0.3969466,1.648855,1.114504,0,1
1.07373,-0.007324219,-0.0402832,0.4198473,1.503817,1.083969,0,1
1.07373,-0.006591797,-0.03515625,0.2824428,1.603053,0.9923664,0,0
1.07373,-0.006347656,-0.03613281,0.2366412,1.816794,1.160305,0,0
1.07373,-0.005859375,-0.04199219,0.2442748,1.740458,0.9923664,0
1.07373,-0.005615234,-0.03369141,0.2366412,1.618321,1.099237,0,0
1.07373,-0.005126953,-0.03100586,0.3206107,1.778626,1.030534,0,1
1.07373,-0.004638672,-0.04418945,0.1755725,1.732824,1.099237,0,0
1.07373,-0.00390625,-0.04052734,0.2442748,1.648855,1.145038,0
1.07373,-0.003417969,-0.03881836,0.3053435,1.534351,1.10687,0,0
1.07373,-0.003173828,-0.0402832,0.480916,1.740458,0.8244275,0,0
1.07373,-0.002929688,-0.03759766,0.2900764,1.70229,0.9541985,0,0
1.07373,-0.0007324219,-0.03930664,0.4961832,1.717557,1.038168,0,0
1.07373,-0.0004882813,-0.04882813,0.4351145,1.564886,1.152672,0,0
1.07373,0.0002441406,-0.03417969,0.519084,1.847328,1.030534,0,0
1.073486,-0.01538086,-0.0390625,0.4885496,1.503817,1.145038,0,0
1.073486,-0.01293945,-0.04150391,0.2671756,1.572519,1.152672,0,0
1.073486,-0.01196289,-0.03466797,0.3587786,1.633588,1.175573,0,0
1.073486,-0.01074219,-0.03637695,0.2213741,1.801527,1.122137,0,0
1.073486,-0.01049805,-0.03125,0.3282443,1.78626,1.160305,0,0
1.073486,-0.009765625,-0.03881836,0.2977099,1.671756,1.030534,0,0
1.073486,-0.009277344,-0.04956055,0.3816794,1.847328,0.9847328,0
1.073486,-0.007080078,-0.03393555,0.1832061,1.587786,1.099237,0,0
1.073486,-0.006347656,-0.03637695,0.2442748,1.671756,1.259542,0,0
1.073486,-0.005859375,-0.04931641,0.2442748,1.78626,1.045802,0,0
1.073486,-0.005615234,-0.04394531,0.1984733,1.709924,1.122137,0,0
1.073486,-0.005615234,-0.03759766,0.4274809,1.541985,1.083969,0,0
1.073486,0.004394531,-0.03491211,0.4045802,1.824428,0.9236641,0,0
1.073486,-0.004150391,-0.04345703,0.3587786,1.625954,1.175573,0,0
1.073486,-0.003417969,-0.03466797,0.2671756,1.816794,1.068702,0,0
1.073486,-0.002685547,-0.03540039,0.1755725,1.641221,0.9541985,0,0
1.073486,-0.0009765625,-0.04296875,0.3587786,1.641221,1.10687,0,0
1.073242,-0.01196289,-0.03393555,0.3282443,1.618321,1.10687,0,0
1.073242,-0.01123047,-0.03833008,0.3206107,1.580153,0.8015267,0,1
1.073242,-0.01025391,-0.03369141,0.2824428,1.656489,0.9236641,0,0
1.073242,-0.009521484,-0.04467773,0.351145,1.763359,0.9236641,0
1.073242,-0.008300781,-0.03686523,0.2824428,1.877863,0.9847328,0
1.073242,-0.007568359,-0.03320313,0.3587786,1.59542,1.053435,0,0
1.073242,-0.006835938,-0.03710938,0.2824428,1.748092,0.9770992,0,0
1.073242,-0.006103516,-0.03149414,0.3053435,1.664122,1.038168,0,0
1.073242,-0.005859375,-0.0480957,0.2977099,1.717557,1.122137,0,0
1.073242,-0.005859375,-0.03564453,0.259542,1.832061,1.061069,0,0
1.073242,-0.004638672,-0.04443359,0.3206107,1.656489,1.114504,0,0
1.073242,0.00390625,-0.03955078,0.351145,1.59542,1.0,0,0
1.073242,0.001708984,-0.06445313,0.03816794,1.992366,1.236641,0,0
1.072998,-0.02905273,-0.0769043,0.2748091,1.717557,0.9236641,0,10
1.072998,0.02172852,-0.04711914,0.5038168,1.709924,1.0,0,0
1.072998,-0.01416016,-0.05151367,0.5038168,1.801527,1.022901,0,0
1.072998,-0.01318359,-0.03710938,0.1450382,1.648855,1.10687,0
1.072998,-0.01147461,-0.03759766,0.5038168,1.19084,1.137405,0,0
1.072998,-0.01025391,-0.03564453,0.3587786,1.458015,1.129771,0,0
1.072998,-0.009765625,-0.04052734,0.3282443,1.80916,1.053435,0,0
1.072998,0.009277344,-0.04833984,0.2137404,1.931298,1.206107,0,0
1.072998,-0.008300781,-0.04223633,0.1908397,1.694656,0.870229,0,0
1.072998,-0.008056641,-0.04443359,0.259542,1.694656,0.870229,0,0
1.072998,-0.007568359,-0.04174805,0.2824428,1.580153,1.038168,0,0
1.072998,-0.007568359,-0.03466797,0.3587786,1.900763,1.038168,0,0
1.072998,-0.006835938,-0.04003906,0.3282443,1.778626,1.129771,0,1
1.072998,-0.006103516,-0.03173828,0.3053435,1.587786,1.053435,0,0
1.072998,-0.00390625,-0.04248047,0.2824428,1.694656,1.068702,0,0
1.072998,-0.00390625,-0.03759766,0.2442748,1.572519,0.961832,0,0
1.072998,-0.002685547,-0.03149414,0.3740458,1.89313,1.053435,0,10
1.072998,-0.002441406,-0.03466797,0.2748091,1.671756,1.091603,0,0
1.072998,0.0007324219,-0.04370117,0.2290076,1.679389,1.022901,0
1.072754,-0.02026367,-0.08129883,0.2748091,2.282443,1.419847,0,10
1.072754,-0.01074219,-0.0324707,0.3664122,1.633588,1.091603,0,0
1.072754,-0.009765625,-0.03759766,0.2366412,1.687023,0.9465649,0,0
1.072754,-0.009521484,-0.02954102,0.1221374,1.59542,1.160305,0,0
1.072754,-0.008544922,-0.046875,0.3358779,1.587786,1.152672,0
1.072754,-0.008544922,-0.046875,0.2671756,1.580153,1.030534,0,0
1.072754,-0.008544922,-0.03076172,0.1908397,1.847328,1.038168,0,0
1.072754,-0.008300781,-0.05517578,0.389313,1.610687,1.137405,0,0
1.072754,0.008300781,-0.04882813,0.4885496,1.80916,1.076336,0,0
1.072754,-0.0078125,-0.0390625,0.3587786,1.801527,1.083969,0,0
1.072754,-0.006347656,-0.04394531,0.1984733,1.587786,0.8854962,0,0
1.072754,-0.005859375,-0.04541016,0.2290076,1.618321,1.022901,0,0
1.072754,-0.005126953,-0.04174805,0.3816794,1.80916,0.9465649,0,0
1.072754,-0.005126953,-0.03051758,0.3435115,1.48855,1.114504,0,0
1.072754,-0.004882813,-0.04125977,0.2671756,1.59542,1.007634,0,0
1.072754,-0.003662109,-0.04223633,0.389313,1.557252,1.038168,0,0
1.072754,-0.002929688,-0.04150391,0.351145,1.541985,1.0,0,0
1.072754,-0.0004882813,-0.03222656,0.2442748,1.763359,1.114504,0,0
1.072754,0.0002441406,-0.05053711,0.3206107,1.78626,1.045802,0
1.07251,-0.01928711,-0.05053711,0.3053435,1.70229,1.229008,0,0
1.07251,-0.0144043,-0.04833984,0.3816794,1.694656,0.8625955,0,0
1.07251,-0.0144043,-0.0324707,0.2366412,1.732824,1.129771,0,0
1.07251,-0.01123047,-0.04711914,0.2748091,1.312977,0.9083969,0,0
1.07251,-0.01098633,-0.03369141,0.2900764,1.618321,1.045802,0,0
1.07251,-0.01025391,-0.04003906,0.2748091,1.748092,1.022901,0,0
1.07251,-0.009765625,-0.04174805,0.2290076,1.534351,1.099237,0,0
1.07251,-0.009765625,-0.0402832,0.3129771,1.778626,1.053435,0,0
1.07251,-0.009521484,-0.0402832,0.4045802,1.656489,1.045802,0,0
1.07251,-0.008789063,-0.05053711,0.1603053,1.709924,1.007634,0,0
1.07251,-0.008544922,-0.03833008,0.3206107,1.778626,1.038168,0
1.07251,-0.008300781,-0.03735352,0.351145,1.519084,1.015267,0,0
1.07251,-0.007080078,-0.04907227,0.2061069,1.778626,1.206107,0,0
1.07251,-0.006591797,-0.03295898,0.3816794,1.839695,1.122137,0,0
1.07251,-0.006103516,-0.04296875,0.2671756,1.656489,1.061069,0,0
1.07251,-0.006103516,-0.03857422,0.2519084,1.633588,1.129771,0,0
1.07251,-0.004882813,-0.05273438,0.1984733,1.664122,1.053435,0,0
1.07251,-0.004394531,-0.03662109,0.2366412,1.572519,1.022901,0,0
1.07251,-0.002441406,-0.02441406,0.1984733,1.717557,0.9007633,0,10
1.07251,-0.001708984,-0.02954102,0.2290076,1.755725,1.091603,0,0
1.07251,-0.0009765625,-0.02392578,0.09160305,1.679389,1.221374,0,1
1.07251,0.0007324219,-0.03808594,0.2137404,2.0,1.045802,0,1
1.072266,-0.03027344,-0.3566895,-105.9313,1.358779,-19.77863,0,1
1.072266,-0.02783203,-0.08007813,0.4274809,1.229008,0.9083969,0,10
1.072266,-0.01782227,-0.03515625,0.2061069,1.656489,0.9312977,0,0
1.072266,-0.01147461,-0.04711914,0.3282443,1.465649,0.8854962,0,0
1.072266,-0.01147461,-0.03564453,0.1603053,1.816794,1.083969,0,0
1.072266,0.01098633,-0.03808594,0.3129771,1.572519,0.9312977,0,0
1.072266,-0.009521484,-0.03344727,0.3053435,1.641221,1.045802,0,0
1.072266,-0.009033203,-0.04638672,0.2137404,1.870229,0.9847328,0,1
1.072266,-0.009033203,-0.02392578,0.1221374,1.610687,0.9770992,0,0
1.072266,-0.008056641,-0.046875,0.2137404,1.679389,1.122137,0,0
1.072266,-0.0078125,-0.03808594,0.1374046,1.732824,1.076336,0,0
1.072266,-0.007324219,-0.03369141,0.2442748,1.603053,0.9465649,0,0
1.072266,-0.005126953,-0.03344727,0.08396947,1.633588,1.061069,0,0
1.072266,-0.004882813,-0.03564453,0.2213741,1.732824,0.9847328,0,0
1.072266,-0.004638672,-0.03808594,0.2977099,1.618321,0.9923664,0,0
1.072266,-0.004150391,-0.04394531,0.2213741,1.687023,1.022901,0,0
1.072266,-0.004150391,-0.02832031,0.2519084,1.618321,1.015267,0,0
1.072266,-0.002685547,-0.0390625,0.4122138,1.839695,0.8015267,0,0
1.072266,-0.002685547,-0.0324707,0.2519084,1.526718,1.160305,0,0
1.072266,-0.001953125,-0.03588867,0.4045802,1.534351,0.9160305,0
1.072021,-0.02270508,0.001708984,-0.007633588,1.496183,0.3129771,0,1
1.072021,-0.01391602,-0.03833008,0.2137404,1.740458,1.007634,0,0
1.072021,-0.01293945,-0.03833008,0.1908397,1.732824,1.022901,0,1
1.072021,-0.01293945,-0.03710938,0.4122138,1.778626,1.160305,0,0
1.072021,-0.01147461,-0.04516602,0.2442748,1.80916,0.9923664,0,0
1.072021,-0.01147461,-0.04443359,0.4503817,1.625954,1.10687,0,0
1.072021,-0.01074219,-0.03417969,0.351145,1.48855,0.9312977,0,0
1.072021,-0.01025391,-0.0324707,0.3129771,1.48855,1.007634,0,0
1.072021,-0.009521484,-0.04150391,0.2977099,1.717557,1.122137,0,0
1.072021,-0.008789063,-0.04443359,0.09160305,1.725191,0.961832,0,0
1.072021,-0.008544922,-0.04296875,0.1526718,1.664122,0.9541985,0,0
1.072021,-0.008544922,-0.03955078,0.2442748,1.854962,1.0,0,0
1.072021,-0.008056641,-0.03271484,0.2977099,1.732824,1.137405,0,0
1.072021,-0.007324219,-0.03857422,0.3206107,1.770992,1.045802,0,0
1.072021,-0.005859375,-0.04614258,0.3206107,1.839695,1.29771,0,0
1.072021,-0.005615234,-0.03808594,0.3358779,1.549618,0.9541985,0,0
1.072021,-0.005615234,-0.02832031,0.2748091,1.664122,1.045802,0,1
1.072021,-0.005126953,-0.04321289,0.3206107,1.717557,1.10687,0,0
1.072021,0.004882813,-0.04052734,0.2824428,1.473282,1.0,0,0
1.072021,-0.004638672,-0.03857422,0.1221374,1.793893,1.137405,0,0
1.072021,-0.004150391,-0.05102539,0.3435115,1.580153,0.9465649,0,0
1.072021,-0.00390625,-0.02978516,0.2442748,1.694656,1.061069,0,0
1.072021,-0.003417969,-0.05615234,0.3358779,1.725191,1.129771,0,0
1.072021,-0.002197266,-0.04174805,0.2824428,1.793893,1.053435,0
1.072021,0.0004882813,-0.03540039,0.3206107,1.656489,1.091603,0,1
1.071777,-0.02734375,-0.04345703,0.2290076,1.732824,1.274809,0,0
1.071777,-0.01513672,-0.04418945,0.4045802,1.671756,1.045802,0
1.071777,-0.01293945,-0.03271484,0.2519084,1.694656,1.145038,0,0
1.071777,-0.01196289,-0.05664063,0.1450382,1.847328,0.9923664,0,0
1.071777,-0.01147461,-0.03076172,0.3358779,2.030534,0.9770992,0,0
1.071777,-0.01098633,-0.04248047,0.1679389,1.519084,1.007634,0,0
1.071777,-0.01098633,-0.03344727,0.2900764,1.496183,1.038168,0,0
1.071777,-0.009277344,-0.04614258,0.3129771,1.770992,1.145038,0
1.071777,-0.009033203,-0.03637695,0.2900764,1.625954,1.045802,0,0
1.071777,0.008300781,-0.05908203,0.4656488,1.793893,1.068702,0,0
1.071777,-0.008300781,-0.03710938,0.4503817,1.603053,1.122137,0,0
1.071777,-0.007080078,-0.03295898,0.2442748,1.687023,1.0,0,0
1.071777,-0.006103516,-0.04614258,0.2900764,1.793893,0.9770992,0,0
1.071777,-0.006103516,-0.03979492,0.351145,1.625954,1.152672,0,0
1.071777,0.001464844,-0.03613281,0.2366412,1.770992,1.129771,0,0
1.071533,-0.0324707,-0.08789063,0.1221374,1.755725,1.244275,0,10
1.071533,-0.01757813,-0.04223633,0.4122138,1.717557,1.076336,0,0
1.071533,-0.01147461,-0.03637695,0.2748091,1.763359,1.015267,0
1.071533,-0.01098633,-0.03540039,0.2137404,1.717557,1.030534,0,0
1.071533,-0.009277344,-0.03369141,0.3664122,1.496183,1.183206,0,0
1.071533,-0.008544922,-0.03955078,0.1679389,1.885496,0.9465649,0,0
1.071533,-0.008056641,-0.03662109,0.2900764,1.656489,0.9847328,0,0
1.071533,-0.0078125,-0.03686523,0.259542,1.709924,1.175573,0
1.071533,-0.007568359,-0.03466797,0.1755725,1.770992,1.038168,0,0
1.071533,-0.007080078,-0.04614258,0.2900764,1.70229,1.0,0,0
1.071533,-0.006591797,-0.04931641,0.1374046,1.78626,1.0,0,0
1.071533,-0.004638672,-0.04394531,0.4274809,1.687023,0.8854962,0,0
1.071533,-0.002929688,-0.04077148,0.3587786,1.778626,0.9923664,0,0
1.071533,0.002197266,-0.04394531,0.2366412,1.778626,1.015267,0,0
1.071533,-0.001953125,-0.04003906,0.1068702,1.755725,1.0,0,0
1.071533,-0.001464844,-0.04833984,0.2977099,1.709924,1.045802,0,0
1.071533,-0.0007324219,-0.04541016,0.3206107,1.725191,0.9847328,0,1
1.071289,-0.02685547,-0.08935547,0.259542,1.870229,1.045802,0,10
1.071289,-0.02441406,-0.05737305,0.08396947,1.633588,1.022901,0,0
1.071289,-0.01367188,-0.03735352,0.3053435,1.931298,0.9541985,0
1.071289,-0.01269531,-0.02880859,0.3282443,1.534351,0.8854962,0
1.071289,-0.01245117,-0.03857422,0.4961832,1.778626,1.061069,0,0
1.071289,-0.01025391,-0.03857422,0.4274809,1.824428,1.022901,0,0
1.071289,-0.009765625,-0.03564453,0.09160305,1.442748,1.21374,0,0
1.071289,-0.009765625,-0.03540039,0.3664122,1.732824,1.038168,0,0
1.071289,-0.009765625,-0.03076172,0.3053435,1.648855,1.0,0,1
1.071289,-0.005859375,-0.02661133,0.3816794,1.732824,1.045802,0,0
1.071289,-0.005126953,-0.0390625,0.259542,1.679389,0.9541985,0,0
1.071289,-0.004394531,-0.04663086,0.4122138,1.664122,1.091603,0
1.071289,-0.004394531,-0.04125977,0.1832061,1.656489,1.221374,0,0
1.071289,-0.00390625,-0.04199219,0.4351145,1.70229,1.030534,0,0
1.071289,-0.003173828,-0.03735352,0.2900764,1.679389,1.122137,0,0
1.071289,-0.002685547,-0.04321289,0.5954198,1.870229,0.9770992,0,0
1.071289,-0.002685547,-0.02661133,0.3435115,1.70229,1.007634,0,0
1.071289,-0.0004882813,-0.0456543,0.2824428,1.679389,1.076336,0,0
1.071045,-0.0300293,-0.07617188,0.3053435,1.21374,0.9236641,0,10
1.071045,-0.02880859,-0.06933594,0.4045802,2.335878,1.083969,0,10
1.071045,-0.02319336,-0.0390625,0.1984733,1.687023,1.068702,0,0
1.071045,-0.02172852,-0.08056641,0.1526718,1.496183,0.961832,0,10
1.071045,-0.02099609,-0.0378418,-5.755725,1.549618,0.6412213,0,0
1.071045,-0.01904297,-0.04223633,0.2671756,1.610687,1.068702,0,0
1.071045,-0.01196289,-0.03637695,0.1603053,1.763359,1.251908,0,0
1.071045,-0.01098633,-0.04443359,0.2977099,1.748092,1.076336,0,0
1.071045,-0.009521484,-0.04174805,0.2748091,1.793893,0.9923664,0,0
1.071045,-0.009277344,-0.04443359,0.2519084,1.694656,0.8549618,0
1.071045,-0.008789063,-0.04614258,0.2290076,1.725191,1.091603,0,0
1.071045,-0.008056641,-0.04736328,0.3206107,1.740458,1.068702,0,1
1.071045,-0.0078125,-0.0324707,0.2137404,1.755725,1.091603,0,0
1.071045,-0.006835938,-0.04296875,0.2824428,1.587786,1.320611,0,0
1.071045,-0.006347656,-0.03466797,0.3587786,1.641221,0.9923664,0,0
1.071045,-0.005859375,-0.03857422,0.351145,1.664122,1.21374,0,1
1.071045,-0.005615234,-0.0402832,0.3053435,1.770992,1.0,0,0
1.071045,-0.005126953,-0.04321289,0.3206107,1.770992,1.0,0
1.071045,-0.004394531,-0.03417969,0.3358779,1.725191,1.015267,0,0
1.071045,0.001708984,-0.03637695,0.2213741,1.633588,0.9007633,0,0
1.071045,0.0004882813,-0.04125977,0.2061069,1.679389,1.19084,0,0
1.070801,-0.3269043,-0.3056641,-16.00763,69.20611,-237.1985,0,10
1.070801,-0.01635742,-0.04394531,0.351145,1.709924,0.8854962,0,0
1.070801,-0.01513672,-0.03833008,0.1984733,1.633588,1.0,0,0
1.070801,-0.01464844,-0.03466797,0.2977099,1.717557,1.198473,0,1
1.070801,-0.01220703,-0.04125977,0.2061069,1.793893,1.045802,0,0
1.070801,-0.01098633,-0.04223633,0.2824428,1.778626,0.9541985,0,0
1.070801,-0.01098633,-0.04174805,0.2977099,1.709924,1.015267,0,0
1.070801,-0.01098633,-0.03930664,0.3282443,1.938931,0.9236641,0,0
1.070801,-0.01000977,-0.03393555,0.2519084,1.793893,1.19084,0,0
1.070801,-0.009765625,-0.04541016,0.3206107,1.648855,1.0,0
1.070801,-0.009765625,-0.03759766,0.2290076,1.564886,0.961832,0
1.070801,-0.009765625,-0.02392578,0.3816794,1.748092,0.9007633,0,0
1.070801,-0.009521484,-0.04003906,0.3969466,1.641221,1.053435,0,0
1.070801,-0.009277344,-0.03710938,0.3435115,1.656489,1.053435,0,0
1.070801,-0.008789063,-0.04101563,0.1832061,1.732824,0.8931297,0,0
1.070801,-0.008056641,-0.04296875,0.3358779,1.648855,0.9083969,0,0
1.070801,-0.0078125,-0.03955078,0.3816794,1.648855,1.167939,0,0
1.070801,-0.007568359,-0.04248047,0.1908397,1.51145,0.9541985,0
1.070801,-0.007568359,-0.02856445,0.2442748,1.641221,1.129771,0,0
1.070801,-0.007080078,-0.03735352,0.1984733,1.671756,1.061069,0,0
1.070801,-0.006591797,-0.02929688,0.3587786,1.694656,1.137405,0,0
1.070801,-0.006103516,-0.0390625,0.4427481,1.832061,1.083969,0,0
1.070801,-0.005859375,-0.04174805,0.1984733,1.694656,1.091603,0,0
1.070801,-0.004638672,-0.02929688,0.2213741,1.618321,1.206107,0,0
1.070801,-0.00390625,-0.04882813,0.1603053,1.610687,0.9007633,0,0
1.070801,-0.00390625,-0.03588867,0.3206107,1.435114,1.167939,0,0
1.070801,-0.002929688,-0.02905273,0.2671756,1.557252,0.9770992,0,0
1.070801,-0.002441406,-0.03930664,0.3053435,1.671756,0.9389313,0,0
1.070801,-0.002197266,-0.03442383,0.1374046,1.679389,1.045802,0,0
1.070801,-0.0009765625,-0.04907227,0.2137404,1.59542,1.099237,0,0
1.070557,-0.1245117,-0.3525391,-59.83206,4.625954,0.3740458,0,1
1.070557,-0.02905273,-0.08740234,0.4351145,1.0,0.7633588,0,10
1.070557,-0.01342773,-0.02954102,0.389313,1.70229,1.236641,0,0
1.070557,-0.01220703,-0.04833984,0.3358779,1.709924,1.137405,0,0
1.070557,-0.009765625,-0.03881836,0.3664122,1.641221,1.015267,0,1
1.070557,-0.009521484,-0.03710938,0.2366412,1.48855,1.129771,0,0
1.070557,-0.009277344,-0.03881836,0.2519084,1.709924,1.145038,0,0
1.070557,-0.009033203,-0.04541016,0.2442748,1.687023,0.9160305,0,0
1.070557,-0.009033203,-0.03515625,0.2290076,1.664122,1.083969,0,0
1.070557,-0.009033203,-0.03344727,0.3587786,1.679389,0.832061,0,1
1.070557,-0.008056641,-0.03955078,0.2519084,1.725191,1.206107,0,0
1.070557,-0.007568359,-0.04980469,0.3435115,1.755725,1.022901,0,0
1.070557,-0.007568359,-0.03393555,0.4122138,1.618321,0.9389313,0,0
1.070557,-0.007324219,-0.04907227,0.1374046,1.778626,1.0,0,0
1.070557,-0.007080078,-0.03710938,0.2519084,1.671756,1.259542,0,0
1.070557,-0.006835938,-0.03588867,0.259542,1.541985,1.038168,0,0
1.070557,-0.006103516,-0.04394531,0.2366412,1.748092,1.152672,0,0
1.070557,-0.006103516,-0.03320313,0.3206107,1.740458,1.015267,0
1.070557,-0.005859375,-0.04077148,0.3587786,1.80916,0.961832,0,1
1.070557,-0.004882813,-0.0402832,0.1679389,1.633588,1.038168,0
1.070557,-0.00390625,-0.03686523,0.4656488,1.778626,1.152672,0,0
1.070557,-0.002685547,-0.04077148,0.3740458,1.648855,1.015267,0,0
1.070557,-0.002197266,-0.04467773,0.2213741,1.70229,0.8854962,0,0
1.070557,-0.001464844,-0.04272461,0.2977099,1.755725,1.053435,0,0
1.070557,-0.0009765625,-0.04223633,0.1068702,1.587786,1.015267,0,0
1.070557,0.0004882813,-0.04736328,0.2519084,1.610687,1.053435,0,0
1.070557,0.0004882813,-0.04052734,0.2977099,1.603053,1.061069,0,0
1.070313,-0.02709961,-0.08691406,0.2290076,1.877863,1.198473,0,10
1.070313,-0.01831055,-0.7709961,-102.8931,33.00763,-38.1832,0,1
1.070313,-0.01123047,-0.04248047,0.2748091,1.679389,1.053435,0,0
1.070313,-0.01025391,-0.0402832,0.2290076,1.557252,1.045802,0,0
1.070313,-0.01000977,-0.03417969,0.1526718,1.824428,0.9770992,0,0
1.070313,-0.01000977,-0.02734375,0.4351145,1.625954,1.221374,0,0
1.070313,-0.01000977,-0.02392578,0.3129771,1.580153,1.007634,0,0
1.070313,-0.009765625,-0.04296875,0.2519084,1.618321,1.015267,0,0
1.070313,-0.009765625,-0.04272461,0.2748091,1.664122,1.076336,0
1.070313,-0.008056641,-0.04125977,0.3435115,1.610687,1.068702,0,0
1.070313,-0.008056641,-0.02172852,0.3206107,1.541985,1.290076,0,1
1.070313,-0.0078125,-0.0324707,0.7251908,1.534351,1.015267,0,0
1.070313,-0.007324219,-0.03515625,0.2900764,1.633588,1.251908,0,0
1.070313,-0.007080078,-0.05004883,0.2671756,1.725191,0.9236641,0,0
1.070313,-0.007080078,-0.02734375,0.3435115,1.954198,0.9236641,0,0
1.070313,-0.006835938,-0.03271484,0.2137404,1.801527,1.022901,0,0
1.070313,-0.005615234,-0.03833008,0.351145,1.885496,0.8854962,0,0
1.070313,-0.005371094,-0.03466797,0.3358779,1.610687,1.122137,0,0
1.070313,0.004150391,-0.01367188,0.2671756,1.625954,1.0,0,10
1.070313,-0.001220703,-0.02319336,0.5267176,1.709924,1.045802,0,1
1.070313,0.0002441406,-0.03466797,0.1145038,2.015267,0.9541985,0,0
1.070068,-0.2915039,1.511963,250.1298,250.1298,-155.4046,0,10
1.070068,-0.01342773,-0.04614258,0.3206107,1.648855,0.9694656,0
1.070068,-0.01342773,-0.03051758,0.2366412,1.51145,1.022901,0,0
1.070068,-0.01269531,-0.07299805,0.3740458,1.679389,0.740458,0,10
1.070068,-0.01171875,-0.03857422,0.3358779,1.603053,1.038168,0
1.070068,-0.01147461,-0.04785156,0.2900764,1.70229,1.045802,0,0
1.070068,-0.01147461,-0.04272461,0.2442748,1.832061,1.10687,0,0
1.070068,-0.01049805,-0.04101563,0.3282443,1.748092,1.061069,0,0
1.070068,-0.01025391,-0.03027344,0.3053435,1.51145,1.10687,0,0
1.070068,-0.01000977,-0.04199219,0.2290076,1.78626,1.099237,0,0
1.070068,-0.009033203,-0.04980469,0.2213741,1.59542,1.038168,0,0
1.070068,-0.008300781,-0.05029297,0.2824428,1.70229,0.9389313,0,0
1.070068,-0.0078125,-0.04858398,0.2519084,1.801527,1.221374,0,1
1.070068,-0.0078125,-0.04638672,0.3282443,1.732824,1.045802,0,0
1.070068,-0.0078125,-0.03588867,0.3206107,1.679389,0.9541985,0,0
1.070068,-0.007568359,-0.03881836,0.2671756,1.564886,0.9847328,0,0
1.070068,-0.007080078,-0.04638672,0.2748091,1.763359,0.9770992,0,0
1.070068,-0.006835938,-0.04541016,0.2519084,1.755725,1.10687,0,0
1.070068,-0.006591797,-0.0378418,0.2061069,1.877863,1.229008,0,0
1.070068,-0.006347656,-0.03808594,0.3129771,1.549618,1.21374,0,0
1.070068,-0.005859375,-0.04248047,0.2213741,1.618321,1.183206,0,0
1.070068,-0.005371094,-0.03320313,0.2290076,1.778626,1.053435,0,0
1.070068,-0.005126953,-0.03808594,0.3816794,1.587786,1.0,0,0
1.070068,-0.004882813,-0.03686523,0.2290076,1.816794,1.129771,0,0
1.070068,-0.004150391,-0.03271484,0.2519084,1.625954,1.152672,0,0
1.070068,-0.00390625,-0.03881836,0.259542,1.89313,0.9541985,0,0
1.070068,-0.003417969,-0.03833008,0.05343511,1.656489,1.053435,0,0
1.070068,0.002929688,-0.04638672,0.259542,1.70229,1.015267,0
1.070068,0.0002441406,-0.04833984,0.4122138,1.740458,1.053435,0,0
1.069824,0.1245117,-0.248291,1.358779,-64.70992,9.725191,0,10
1.069824,-0.01586914,-0.05200195,0.2442748,1.526718,1.183206,0,0
1.069824,-0.01147461,-0.03759766,0.2977099,1.641221,1.198473,0,0
1.069824,-0.01049805,-0.04296875,0.2442748,1.580153,1.038168,0
1.069824,-0.01049805,-0.04199219,0.1832061,1.442748,0.9694656,0,0
1.069824,-0.008789063,-0.04589844,0.2977099,1.656489,1.198473,0,0
1.069824,-0.008300781,-0.04467773,0.2290076,1.51145,1.083969,0
1.069824,-0.007080078,-0.05053711,0.3129771,1.824428,0.9770992,0,0
1.069824,-0.007080078,-0.04882813,0.1755725,1.656489,1.091603,0,0
1.069824,-0.005615234,-0.04956055,0.3282443,1.709924,0.9465649,0
1.069824,-0.005126953,-0.04907227,0.259542,1.694656,1.160305,0,0
1.069824,-0.004150391,-0.05078125,0.3435115,1.755725,1.160305,0,0
1.069824,-0.002929688,-0.03491211,0.3435115,1.839695,0.9160305,0,0
1.069824,-0.002441406,-0.02416992,0.2671756,1.80916,1.015267,0,1
1.069824,-0.002197266,-0.04150391,0.4122138,1.610687,1.175573,0,0
1.069824,-0.0009765625,-0.0324707,0.1374046,1.633588,1.007634,0,0
1.06958,0.1977539,-0.7553711,136.2672,-60.51908,30.42748,0,1
1.06958,0.1450195,0.2910156,-191.0687,3.89313,-7.396946,0,1
1.06958,-0.01391602,-0.03076172,0.4274809,1.748092,0.9312977,0,0
1.06958,-0.01220703,-0.03930664,0.3053435,1.656489,0.9541985,0,0
1.06958,-0.01123047,-0.03369141,0.3740458,1.664122,1.015267,0,0
1.06958,-0.01025391,-0.03735352,0.2519084,1.328244,1.038168,0,1
1.06958,-0.01000977,-0.03588867,0.2213741,1.832061,1.0,0,0
1.06958,-0.009521484,-0.03588867,0.2290076,1.648855,1.015267,0,0
1.06958,-0.009033203,-0.0559082,0.3282443,1.656489,1.10687,0,0
1.06958,-0.009033203,-0.04467773,0.2671756,1.763359,1.152672,0,0
1.06958,-0.009033203,-0.03735352,0.3206107,1.679389,1.244275,0,0
1.06958,-0.008789063,-0.04370117,0.3740458,1.687023,1.038168,0,0
1.06958,-0.008789063,-0.04077148,0.2137404,1.694656,1.0,0,0
1.06958,-0.008544922,-0.03979492,0.2671756,1.717557,1.091603,0,0
1.06958,-0.008056641,-0.03808594,0.3587786,1.610687,1.022901,0,0
1.06958,-0.0078125,-0.03442383,0.2977099,1.725191,1.175573,0,0
1.06958,-0.007080078,-0.03759766,0.2977099,1.740458,1.0,0,0
1.06958,-0.006103516,-0.0324707,0.2824428,1.732824,0.9923664,0,1
1.06958,-0.005615234,-0.04223633,0.3358779,1.709924,1.10687,0,0
1.06958,-0.005371094,-0.04956055,0.3053435,1.694656,1.167939,0,0
1.06958,-0.005371094,-0.04418945,0.4045802,1.862595,1.015267,0,0
1.06958,-0.005126953,-0.03979492,0.1221374,1.916031,0.9923664,0,0
1.06958,-0.004882813,-0.03881836,0.1832061,1.664122,1.229008,0,0
1.06958,-0.004638672,-0.0300293,0.2977099,1.641221,1.099237,0,0
1.06958,-0.004150391,-0.05175781,0.3969466,1.908397,1.007634,0,0
1.06958,-0.004150391,-0.03344727,0.3740458,1.625954,1.068702,0,0
1.069336,-0.02026367,-0.04833984,0.4580153,1.664122,1.061069,0,0
1.069336,-0.01245117,-0.04150391,0.3358779,1.580153,1.0,0,0
1.069336,-0.01098633,-0.0480957,0.09923664,1.625954,0.9541985,0,0
1.069336,-0.01098633,-0.03027344,0.3053435,1.709924,0.832061,0,0
1.069336,-0.009765625,-0.03198242,0.2900764,1.59542,1.137405,0,1
1.069336,-0.008300781,-0.04418945,0.259542,1.793893,1.0,0,0
1.069336,-0.008056641,-0.05004883,0.2671756,1.725191,1.030534,0,0
1.069336,-0.007080078,-0.03076172,0.3053435,1.679389,1.015267,0,0
1.069336,-0.005371094,-0.02636719,0.2671756,1.572519,1.145038,0,0
1.069336,-0.005126953,-0.03125,0.3282443,1.648855,1.022901,0,0
1.069336,-0.004150391,-0.03051758,0.351145,1.709924,1.0,0,0
1.069336,-0.003417969,-0.04833984,0.2824428,1.870229,1.129771,0,0
1.069336,-0.003417969,-0.04394531,0.3969466,1.725191,1.206107,0,0
1.069336,-0.003417969,-0.04199219,0.259542,1.687023,1.10687,0,0
1.069336,-0.002685547,-0.03881836,0.1221374,1.755725,0.961832,0,0
1.069336,-0.001953125,-0.05615234,0.2442748,1.732824,1.21374,0,0
1.069336,0.0004882813,-0.04296875,0.2977099,1.671756,1.099237,0,0
1.069336,-0.0004882813,-0.03491211,0.2900764,1.648855,0.8549618,0,0
1.069092,-0.01953125,-0.0625,0.3358779,1.671756,1.061069,0,0
1.069092,-0.0168457,-0.03149414,0.2748091,1.725191,1.091603,0,0
1.069092,-0.01464844,-0.03735352,0.2137404,1.656489,1.129771,0,0
1.069092,-0.01293945,-0.04223633,0.3053435,1.572519,1.068702,0,0
1.069092,-0.01098633,-0.06982422,0.480916,1.931298,1.053435,0,0
1.069092,-0.01025391,-0.0534668,0.2824428,1.618321,0.9389313,0,0
1.069092,-0.009521484,-0.03588867,0.3358779,1.664122,0.9236641,0,0
1.069092,-0.008544922,-0.03491211,0.259542,1.832061,1.022901,0,0
1.069092,-0.008056641,-0.02905273,0.1603053,1.763359,1.160305,0,0
1.069092,-0.007080078,-0.04101563,0.2671756,1.671756,1.061069,0,0
1.069092,-0.007080078,-0.04077148,0.259542,1.832061,0.9923664,0,0
1.069092,0.006103516,-0.03393555,0.259542,1.473282,1.167939,0,0
1.069092,-0.005371094,-0.03540039,0.2671756,1.725191,1.015267,0,0
1.069092,-0.004150391,-0.03759766,0.3435115,1.717557,0.9007633,0,0
1.069092,-0.004150391,-0.03613281,0.2213741,1.641221,1.114504,0,1
1.069092,-0.002441406,-0.03149414,0.2977099,1.664122,1.045802,0,0
1.069092,-0.0007324219,-0.03466797,0.1679389,1.656489,1.083969,0,1
1.069092,0.0007324219,-0.02124023,0.3740458,1.534351,0.9083969,0,1
1.069092,-0.0004882813,-0.03735352,0.2671756,1.885496,0.9694656,0,0
1.068848,-0.02636719,-0.08691406,0.4122138,1.977099,1.19084,0,10
1.068848,-0.02416992,-0.08349609,0.3740458,1.862595,1.274809,0,10
1.068848,-0.01660156,-0.08666992,0.0610687,1.839695,1.129771,0,10
1.068848,-0.01391602,-0.03344727,0.3435115,1.648855,0.9847328,0,0
1.068848,-0.01391602,-0.03149414,0.1984733,1.70229,1.061069,0,0
1.068848,-0.01342773,-0.04077148,0.3358779,1.717557,0.8167939,0,0
1.068848,-0.01171875,-0.04125977,0.2442748,1.740458,1.145038,0,0
1.068848,-0.009521484,-0.04003906,0.389313,1.740458,1.160305,0,0
1.068848,-0.009277344,-0.04272461,0.3053435,1.648855,0.9160305,0,0
1.068848,-0.008544922,-0.03735352,0.3816794,1.778626,0.9770992,0,0
1.068848,-0.006347656,-0.03320313,0.3282443,1.671756,0.8778625,0,0
1.068848,-0.005859375,-0.03125,0.3740458,1.694656,1.022901,0,0
1.068848,-0.005126953,-0.04907227,0.3587786,1.740458,1.267176,0,0
1.068848,-0.002929688,-0.03710938,0.5648855,1.725191,1.236641,0,1
1.068848,-0.002197266,-0.04541016,0.2519084,1.70229,0.9694656,0
1.068848,-0.001464844,-0.04052734,0.3358779,1.755725,1.122137,0,0
1.068604,-0.03344727,-0.07177734,0.259542,1.778626,1.114504,0,1
1.068604,-0.02050781,-0.08374023,0.2213741,2.358779,1.412214,0,10
1.068604,-0.01586914,-0.04296875,0.3129771,1.755725,1.419847,0,0
1.068604,-0.01489258,-0.06640625,0.259542,1.70229,1.053435,0,0
1.068604,-0.01074219,-0.04077148,0.3358779,1.854962,1.068702,0,0
1.068604,-0.01000977,-0.03930664,0.3587786,1.572519,0.9083969,0,1
1.068604,-0.009765625,-0.04199219,0.2671756,1.549618,1.129771,0,0
1.068604,-0.008300781,-0.02075195,0.2824428,1.801527,0.9465649,0,0
1.068604,-0.0078125,-0.04272461,0.2213741,1.725191,1.007634,0,0
1.068604,-0.006347656,-0.03100586,-0.04580153,1.748092,0.961832,0,0
1.068604,-0.005615234,-0.0378418,0.3435115,1.580153,1.007634,0,0
1.068604,-0.005371094,-0.04541016,0.3282443,1.641221,1.091603,0
1.068604,-0.004638672,-0.04516602,0.2977099,1.633588,0.8549618,0,0
1.068604,-0.003662109,-0.03125,0.2366412,1.748092,1.045802,0,1
1.068604,-0.002685547,-0.03442383,0.2213741,1.709924,0.9465649,0,0
1.068359,-0.02636719,-0.07836914,0.1526718,1.564886,1.343511,0,10
1.068359,-0.0144043,-0.03466797,0.3129771,1.687023,0.9923664,0,0
1.068359,-0.01318359,-0.04272461,0.351145,1.641221,1.053435,0
1.068359,-0.01196289,-0.03637695,0.2671756,1.541985,0.9694656,0,0
1.068359,-0.01171875,-0.04125977,0.2671756,1.694656,0.8625955,0,0
1.068359,-0.01074219,-0.02929688,0.1068702,1.832061,0.9847328,0,1
1.068359,-0.01049805,-0.03369141,0.2519084,1.709924,1.053435,0
1.068359,-0.01025391,-0.03759766,0.1755725,1.687023,0.9236641,0
1.068359,-0.009033203,-0.03833008,0.3282443,1.885496,1.10687,0,0
1.068359,-0.008544922,-0.04125977,0.3587786,1.610687,1.068702,0,0
1.068359,-0.008300781,-0.03881836,0.2977099,1.816794,1.007634,0,0
1.068359,-0.007080078,-0.04418945,0.259542,1.748092,1.083969,0,0
1.068359,-0.006835938,-0.04077148,0.3129771,1.778626,0.778626,0
1.068359,-0.005371094,-0.04516602,0.2137404,1.709924,0.9312977,0,1
1.068359,-0.005126953,-0.04663086,0.129771,1.816794,1.099237,0,0
1.068359,-0.004638672,-0.04174805,0.08396947,1.580153,0.9847328,0,0
1.068359,-0.004394531,-0.0534668,0.4274809,1.580153,1.076336,0,0
1.068359,-0.00390625,-0.02929688,0.3587786,1.534351,0.9389313,0,1
1.068359,-0.003417969,-0.04174805,0.3664122,1.59542,0.9236641,0,0
1.068359,-0.002685547,-0.03442383,0.4198473,1.694656,1.083969,0,1
1.068359,-0.001953125,-0.04492188,0.4503817,1.732824,1.068702,0,0
1.068359,-0.001953125,-0.03051758,0.1908397,1.664122,1.091603,0,0
1.068359,-0.0007324219,-0.05102539,0.3435115,1.656489,0.9770992,0,0
1.068115,-0.01464844,-0.03051758,0.2061069,1.717557,0.9847328,0,0
1.068115,-0.01464844,-0.01855469,0.129771,1.603053,1.10687,0,0
1.068115,-0.01171875,-0.05444336,0.2900764,1.793893,1.061069,0,0
1.068115,-0.01098633,-0.0534668,0.3664122,1.89313,1.015267,0
1.068115,-0.01000977,-0.04638672,0.2824428,1.748092,1.045802,0,0
1.068115,-0.009765625,-0.04077148,0.1908397,1.633588,1.015267,0,0
1.068115,-0.0078125,-0.0378418,0.3282443,1.694656,1.038168,0,0
1.068115,-0.006591797,-0.02636719,0.2977099,1.709924,1.129771,0,0
1.068115,-0.005615234,-0.03369141,0.259542,1.664122,0.9694656,0,0
1.068115,-0.005126953,-0.03759766,0.4351145,1.763359,0.9465649,0,1
1.068115,-0.004638672,-0.03759766,0.3282443,1.610687,1.10687,0,0
1.068115,-0.003662109,-0.03100586,0.3358779,1.740458,1.099237,0,0
1.068115,-0.002441406,-0.04052734,0.2290076,1.717557,1.099237,0,0
1.068115,-0.002197266,-0.04296875,0.2213741,1.732824,0.9541985,0,0
1.068115,-0.001220703,-0.03588867,0.3816794,1.664122,1.076336,0,0
1.068115,0.0002441406,-0.03808594,0.1984733,1.793893,1.183206,0,0
1.067871,-0.02783203,-0.08520508,0.1603053,1.572519,0.870229,0,10
1.067871,-0.0144043,-0.02392578,0.3053435,1.778626,0.9007633,0,0
1.067871,-0.01245117,-0.03881836,0.2748091,1.526718,1.091603,0
1.067871,-0.01000977,-0.04321289,0.2061069,1.763359,1.251908,0
1.067871,-0.009277344,-0.03491211,0.2366412,1.603053,1.015267,0,1
1.067871,-0.005859375,-0.03320313,0.3358779,1.587786,0.961832,0,0
1.067871,-0.003662109,-0.04296875,0.2900764,1.618321,1.145038,0,0
1.067871,0.0009765625,-0.03979492,0.2290076,1.679389,1.068702,0,0
1.067871,0.0007324219,-0.04394531,0.2061069,1.625954,1.030534,0,0
1.067627,-0.01928711,-0.02832031,0.351145,1.900763,0.870229,0,0
1.067627,-0.01123047,-0.0390625,0.1679389,1.671756,0.9236641,0,0
1.067627,-0.01098633,-0.0378418,0.2748091,1.671756,0.9312977,0,0
1.067627,-0.01000977,-0.04125977,0.2748091,1.564886,1.152672,0,0
1.067627,-0.009033203,-0.04052734,0.09160305,1.648855,0.7862596,0,1
1.067627,-0.008544922,-0.03442383,0.4122138,1.610687,0.9847328,0,1
1.067627,-0.0078125,-0.03833008,0.2519084,1.78626,1.091603,0,0
1.067627,-0.007568359,-0.03857422,0.2824428,1.755725,0.8778625,0,0
1.067627,-0.005615234,-0.03955078,0.351145,1.854962,1.022901,0
1.067627,-0.005126953,-0.04150391,0.1679389,1.763359,1.10687,0,0
1.067627,0.0,-0.02319336,0.4122138,1.51145,1.145038,0,0
1.067383,-0.02978516,-0.08813477,0.1984733,1.160305,1.022901,0,10
1.067383,-0.01171875,-0.02758789,0.389313,2.091603,1.122137,0,0
1.067383,-0.01123047,-0.04394531,0.3282443,1.824428,1.015267,0,0
1.067383,-0.01049805,-0.03442383,0.2213741,1.740458,0.9312977,0,0
1.067383,-0.007080078,-0.04760742,0.2213741,1.748092,0.9236641,0,0
1.067383,-0.006591797,-0.05615234,0.03816794,1.725191,0.9160305,0,0
1.067383,-0.005371094,-0.03759766,0.4274809,1.48855,1.061069,0,0
1.067383,-0.004638672,-0.04394531,0.2824428,1.839695,0.9007633,0,0
1.067383,0.003173828,-0.03466797,0.2061069,1.763359,1.030534,0,0
1.067139,-0.02636719,-0.08642578,0.3587786,1.610687,1.221374,0,10
1.067139,-0.01538086,-0.04150391,0.3358779,1.679389,1.183206,0,0
1.067139,-0.01245117,-0.02661133,0.3129771,1.656489,1.236641,0,0
1.067139,-0.01098633,-0.03466797,0.4198473,1.59542,1.183206,0,0
1.067139,-0.01025391,-0.04150391,0.389313,1.694656,0.961832,0,0
1.067139,-0.01025391,-0.0378418,0.3206107,1.778626,1.145038,0,0
1.067139,-0.01000977,-0.04980469,0.2213741,1.656489,0.9923664,0,0
1.067139,-0.0078125,-0.04370117,0.2366412,1.755725,1.083969,0,0
1.067139,-0.007568359,-0.04321289,0.3206107,1.862595,1.068702,0,0
1.067139,-0.006347656,-0.01928711,0.2900764,1.725191,1.030534,0,0
1.067139,0.00390625,-0.0925293,0.2671756,2.839695,1.320611,0,1
1.066895,-0.01293945,-0.05419922,0.2137404,1.732824,0.8244275,0,0
1.066895,-0.01147461,-0.03979492,0.4351145,1.656489,1.137405,0,0
1.066895,-0.01025391,-0.04296875,0.2671756,1.625954,1.122137,0,0
1.066895,-0.01025391,-0.02661133,0.2519084,1.885496,1.053435,0,0
1.066895,-0.008789063,-0.04223633,0.3129771,1.824428,1.122137,0,0
1.066895,-0.008300781,-0.03369141,0.4045802,1.709924,1.015267,0,0
1.066895,-0.005371094,-0.03051758,0.3435115,1.549618,1.007634,0,0
1.066895,0.002441406,-0.03857422,0.2748091,1.725191,1.10687,0,0
1.06665,-0.03271484,0.7341309,-9.862596,-17.87786,1.198473,0,1
1.06665,-0.01147461,-0.03417969,0.3816794,1.610687,1.137405,0,0
1.06665,-0.009033203,-0.03759766,0.2137404,1.603053,0.8244275,0,0
1.06665,-0.008544922,-0.04956055,0.389313,1.717557,1.167939,0,0
1.06665,-0.0078125,-0.05566406,0.3358779,1.824428,0.9541985,0,0
1.06665,-0.007324219,-0.04345703,0.2671756,1.656489,1.10687,0,0
1.06665,-0.005126953,-0.04394531,0.2442748,1.648855,1.160305,0,0
1.06665,-0.004150391,-0.03515625,0.2671756,1.625954,1.122137,0,0
1.06665,-0.003417969,-0.0378418,0.1755725,1.458015,1.053435,0,0
1.06665,-0.001464844,-0.03930664,0.3358779,1.900763,1.129771,0,0
1.06665,-0.0004882813,-0.02807617,0.3435115,1.656489,0.9770992,0,0
1.066406,-0.0222168,0.004150391,0.740458,2.290076,0.1068702,0,0
1.066406,-0.01098633,-0.02587891,0.3358779,1.89313,1.076336,0,0
1.066406,-0.008789063,-0.04174805,0.2137404,1.603053,1.007634,0,0
1.066406,-0.008300781,-0.0534668,0.2290076,1.587786,0.8167939,0,0
1.066406,-0.006347656,-0.046875,0.2977099,1.671756,1.10687,0
1.066406,-0.003173828,-0.04003906,0.1679389,1.603053,1.0,0,0
1.066406,-0.002197266,-0.03076172,0.2061069,1.694656,1.129771,0
1.066162,-0.03149414,-0.09008789,0.259542,-1.335878,0.6030535,0,10
1.066162,-0.009765625,-0.04296875,0.2366412,1.59542,1.0,0,1
1.066162,-0.008789063,-0.03979492,0.2290076,1.549618,1.0,0,0
1.066162,-0.006835938,-0.03930664,0.2748091,1.748092,0.8167939,0,0
1.066162,-0.005371094,-0.04077148,0.3664122,1.709924,1.10687,0,0
1.066162,-0.0009765625,-0.04248047,0.2366412,1.679389,1.045802,0
1.066162,0.0004882813,-0.03173828,0.3358779,1.740458,1.206107,0,0
1.065918,-0.3144531,1.394531,215.8626,31.55725,152.5267,0,10
1.065918,-0.06860352,-0.0002441406,47.21374,6.137404,5.778626,0,1
1.065918,-0.01342773,-0.04882813,0.2366412,1.778626,1.015267,0,0
1.065918,-0.01196289,-0.03955078,0.3587786,1.496183,1.091603,0,0
1.065918,-0.004882813,-0.04614258,0.4503817,1.725191,1.015267,0,1
1.065918,-0.004638672,-0.02758789,0.08396947,1.671756,1.129771,0,1
1.065918,0.004394531,-0.03833008,0.3358779,1.984733,1.152672,0,0
1.065918,-0.003173828,-0.04101563,0.2748091,1.732824,1.022901,0
1.065918,0.003173828,-0.03759766,0.1145038,1.625954,1.122137,0,0
1.065918,-0.001708984,-0.04516602,0.2519084,1.709924,1.083969,0,0
1.065918,-0.001708984,-0.03295898,0.4122138,1.832061,0.961832,0,0
1.065918,-0.001464844,-0.04394531,0.3282443,1.656489,1.038168,0,0
1.065674,-0.01171875,-0.04418945,0.1679389,1.709924,1.045802,0,0
1.065674,-0.009521484,-0.0300293,0.3206107,1.625954,1.045802,0,0
1.065674,0.006347656,-0.0378418,0.1908397,1.610687,1.038168,0,0
1.065674,-0.00390625,-0.04003906,0.3129771,1.648855,1.015267,0,0
1.065674,-0.003662109,-0.04321289,0.4274809,1.717557,1.137405,0,0
1.065674,-0.003173828,-0.2478027,-3.122137,92.19847,24.0458,0,10
1.06543,-0.01123047,-0.04663086,0.1526718,1.847328,1.045802,0
1.06543,-0.009521484,-0.03442383,0.2977099,1.633588,1.007634,0,0
1.06543,-0.006347656,-0.03369141,0.1908397,1.755725,1.030534,0,0
1.06543,-0.005371094,-0.03930664,0.3206107,1.679389,1.145038,0,0
1.06543,-0.005126953,-0.04833984,0.3740458,1.78626,1.152672,0,0
1.06543,-0.004638672,-0.04516602,0.4580153,1.717557,0.9923664,0,0
1.065186,-0.1584473,0.9926758,28.25954,31.39695,166.2824,0,10
1.065186,-0.01391602,-0.04785156,0.4732824,1.748092,0.9465649,0,0
1.065186,-0.01245117,-0.03857422,0.2824428,1.694656,0.9694656,0,0
1.065186,-0.009521484,-0.04370117,0.351145,1.78626,0.9236641,0,0
1.065186,-0.0078125,-0.04174805,0.1832061,1.816794,0.9923664,0,0
1.065186,-0.006103516,-0.03833008,0.1984733,1.587786,0.7633588,0,0
1.065186,-0.005126953,-0.04003906,0.259542,1.656489,0.8167939,0,0
1.065186,-0.0004882813,-0.04296875,0.2442748,1.740458,1.076336,0,0
1.064941,-0.009033203,-0.02758789,0.3053435,1.679389,1.045802,0,0
1.064941,-0.006835938,-0.04443359,0.3129771,1.748092,1.022901,0,0
1.064941,-0.006591797,-0.04858398,0.4198473,1.70229,0.9923664,0,0
1.064941,-0.005615234,-0.03466797,0.3664122,1.748092,0.9770992,0,0
1.064697,-0.01025391,-0.03662109,0.2824428,1.778626,1.022901,0,0
1.064697,0.0078125,-0.05297852,0.2671756,2.061069,0.8091603,0,0
1.064697,-0.0078125,-0.04858398,0.2137404,1.740458,1.152672,0,0
1.064697,-0.005615234,-0.04418945,0.3740458,1.862595,1.053435,0,0
1.064697,-0.003417969,-0.03686523,0.1832061,1.648855,1.068702,0,0
1.064697,-0.001464844,-0.03710938,0.3816794,1.59542,1.022901,0,0
1.064453,-0.01513672,-0.05322266,0.3206107,1.603053,1.152672,0
1.064453,-0.01025391,-0.04052734,0.1374046,1.671756,0.9007633,0,0
1.064453,-0.007080078,-0.03491211,0.2290076,1.717557,1.045802,0,0
1.064209,-0.01342773,-0.03613281,0.2519084,1.80916,0.961832,0,0
1.064209,-0.009765625,-0.04492188,0.3129771,1.748092,1.099237,0,0
1.064209,-0.007080078,-0.04370117,0.1068702,1.610687,1.022901,0,0
1.064209,-0.004882813,-0.0234375,0.2213741,1.854962,0.8931297,0,0
1.064209,-0.004394531,-0.03222656,0.3053435,1.389313,1.122137,0,1
1.064209,-0.00390625,-0.04199219,0.2748091,1.694656,0.9541985,0,0
1.063965,-0.01245117,-0.04833984,0.1068702,1.694656,0.9923664,0,0
1.063965,-0.008789063,-0.03808594,0.5496183,1.664122,1.053435,0,0
1.063721,-0.01855469,-0.0390625,0.3053435,1.862595,0.9770992,0,0
1.063721,-0.01074219,-0.03710938,0.3282443,1.755725,1.015267,0,10
1.063721,-0.008544922,-0.03735352,0.3282443,1.70229,0.870229,0,0
1.063721,-0.005615234,-0.03662109,0.2061069,1.70229,0.9923664,0,0
1.063721,-0.004882813,-0.03662109,0.2519084,1.656489,0.9694656,0,0
1.063721,-0.003662109,-0.0378418,0.2748091,1.70229,1.160305,0,1
1.063721,0.002685547,-0.04418945,0.2213741,1.480916,0.7862596,0,0
1.063721,0.002685547,-0.02758789,0.2519084,1.977099,1.145038,0,0
1.063721,-0.001464844,-0.03979492,0.1984733,1.793893,0.9694656,0,1
1.063477,-0.01049805,-0.04394531,0.1221374,1.587786,1.129771,0,0
1.063477,-0.005371094,-0.04248047,0.2442748,1.541985,1.038168,0,0
1.063477,-0.004882813,-0.04345703,0.2824428,1.854962,1.022901,0,0
1.062988,0.1230469,0.3178711,-34.19847,-10.33588,-2.671756,0,10
1.062988,-0.004150391,-0.03173828,0.2442748,1.40458,0.9694656,0,1
1.062744,-0.008300781,-0.03735352,0.3969466,1.541985,1.030534,0,0
1.0625,-0.006591797,-0.05078125,0.08396947,1.625954,0.9923664,0,0
1.062012,-0.03344727,0.046875,3.557252,-1.770992,2.030534,0,1
1.062012,-0.01293945,-0.03710938,0.2748091,1.656489,0.9465649,0,0
1.062012,0.0002441406,-0.03955078,0.3587786,1.564886,1.0,0,0
1.061768,-0.02026367,-0.03613281,-0.02290076,1.717557,1.236641,0,10
1.061768,-0.009765625,-0.03881836,0.2213741,1.610687,0.8549618,0,0
1.061523,-0.004394531,-0.03979492,0.2977099,1.687023,1.068702,0,0
1.061279,-0.0078125,-0.04003906,0.2442748,1.70229,1.10687,0,0
1.061035,-0.01928711,-0.04760742,0.2824428,1.694656,1.114504,0,0
1.061035,-0.004150391,-0.03051758,0.3053435,1.694656,0.7251908,0,0
1.060791,-0.005615234,-0.03710938,0.4503817,1.862595,0.8549618,0,0
1.060547,0.1320801,-0.6970215,139.7405,-63.30534,26.53435,0,1
1.060547,-0.02612305,-0.06347656,0.3740458,1.740458,0.8473283,0,0
1.060303,-0.009521484,-0.03979492,0.1526718,1.801527,0.8854962,0,0
1.060303,-0.006103516,-0.03222656,0.2061069,1.70229,0.8396947,0
1.060303,-0.003662109,-0.03881836,0.4427481,1.78626,1.068702,0,0
1.060059,-0.02148438,-0.002441406,-1.061069,0.1908397,0.08396947,0,1
1.059814,-0.157959,-0.921875,72.70229,-5.167939,42.68702,0,1
1.059814,-0.01757813,-0.1359863,15.19847,-39.20611,8.267176,0,10
1.059326,-0.01953125,-0.04199219,0.2213741,1.656489,1.167939,0,0
1.059082,0.05786133,-1.023193,122.7786,-26.80916,39.68702,0,1
1.058838,-0.08349609,-0.06640625,-34.90076,31.35878,20.67175,0,1
1.058594,-0.3188477,-0.1525879,75.32061,29.47328,-198.8473,0,10
1.057861,0.008056641,-0.0168457,0.1679389,2.305344,0.8473283,0,0
1.057861,0.002197266,-0.03198242,0.2977099,1.801527,1.007634,0,0
1.057617,-0.01733398,-0.004882813,0.259542,1.717557,0.8473283,0,0
1.057373,0.1240234,-0.5949707,108.4275,-53.12214,54.20611,0,1
1.057373,-0.0009765625,-0.03320313,0.129771,1.625954,0.8015267,0,0
1.056885,0.3583984,-0.2382813,7.0,95.64886,-4.389313,0,1
1.056885,0.1682129,-0.0144043,124.8702,-62.44275,42.90076,0,1
1.056885,-0.01025391,-0.04956055,0.2366412,1.877863,0.8778625,0,0
1.056641,0.1679688,-0.9018555,114.3511,-61.0229,30.03053,0,1
1.056152,0.1599121,-0.6291504,154.8473,-71.94656,25.53435,0,1
1.055908,-0.02490234,-0.02587891,0.3206107,1.801527,0.8854962,0,0
1.055908,0.005615234,-0.04272461,0.259542,1.519084,0.9007633,0,1
1.054932,-0.515625,1.999939,191.313,123.1221,33.50382,0,10
1.054199,-0.01489258,-0.003417969,0.4580153,1.328244,0.6030535,0,1
1.053955,-0.5603027,-0.4379883,89.9771,29.08397,-226.0229,0,10
1.053955,-0.2246094,1.091064,-205.9389,132.6794,-136.7099,0,10
1.053467,0.1865234,-0.9562988,117.2519,-64.52672,40.45802,0,1
1.052979,0.1142578,0.5800781,-102.3969,61.70229,-37.35115,0,1
1.051514,0.1774902,0.1411133,117.4809,-38.71756,23.56489,0,1
1.051025,0.2402344,-0.09423828,-77.15267,12.66412,-1.305344,0,1
1.050049,0.03027344,0.7229004,170.771,89.99236,-110.5343,0,10
1.049316,0.182373,0.3601074,130.4733,-28.38168,17.73282,0,1
1.049072,-0.1357422,1.054443,0.3969466,96.74809,178.3512,0,10
1.048828,-0.04492188,0.2111816,-129.4046,-22.91603,-10.64886,0,1
1.04834,0.08764648,-0.08398438,63.01527,-32.44275,37.34351,0,1
1.047852,-0.114502,-0.498291,-95.229,25.20611,-45.69466,0,1
1.047363,-0.0009765625,-0.04663086,0.2900764,2.015267,0.9923664,0,0
1.047119,0.1635742,-0.421875,148.1069,-85.43511,32.54198,0,1
1.046631,0.05737305,-0.2648926,44.64885,9.549619,7.435114,0,1
1.045654,-0.03076172,0.03222656,-6.48855,75.46565,-20.27481,0,0
1.04541,0.02587891,-0.661377,127.9618,-52.50382,54.76336,0,1
1.045166,0.07324219,0.182373,-2.206107,-20.43511,-2.358779,0,10
1.044922,0.2229004,0.2990723,42.33588,49.77863,7.671756,0,10
1.044678,0.0,-0.1618652,0.7938931,22.48855,8.969465,0,10
1.043701,0.02636719,-0.1367188,18.70992,-65.58778,-31.25191,0,10
1.043457,-0.1203613,-0.5529785,21.53435,-78.62595,173.3664,0,10
1.042969,0.1640625,-0.01318359,136.6412,-63.61832,36.50382,0,1
1.042725,-0.1018066,-0.7978516,82.76336,-10.87786,49.48092,0,1
1.04248,-0.009765625,-0.1328125,0.4122138,2.854962,1.152672,0,0
1.040527,-0.6691895,-0.6174316,101.0153,10.56489,-250.1374,0,10
1.039551,0.006347656,-0.05932617,0.1679389,1.358779,1.015267,0,0
1.039063,0.1574707,-0.3383789,147.0229,-69.229,31.05343,0,1
1.037354,-0.2304688,1.110107,-250.1374,-49.68702,-56.9313,0,10
1.036865,-0.0002441406,-0.5163574,-134.6718,50.32061,-51.54962,0,1
1.036621,0.07641602,-0.5874023,136.5267,-38.1145,65.9313,0,1
1.036377,-0.1750488,1.325928,-15.18321,67.22137,209.7328,0,10
1.0354,0.1723633,0.5012207,70.9542,60.9313,-19.22901,0,1
1.0354,0.04711914,-0.5297852,140.1908,-39.48855,52.72519,0,1
1.035156,-0.09863281,0.8383789,15.16031,-4.793893,54.76336,0,1
1.032227,0.03100586,0.2116699,21.17557,-15.43511,-13.52672,0,10
1.032227,0.002929688,-0.06054688,0.3206107,3.267176,0.6183206,0,0
1.031494,0.1032715,-0.5085449,133.8779,-72.8168,46.38931,0,1
1.030273,-0.1374512,-0.831543,-70.19847,-7.709924,-51.42748,0,1
1.029297,0.005126953,-0.5693359,-127.4504,48.23664,-50.70992,0,1
1.029053,0.03979492,-0.1499023,-121.3511,45.48855,-61.9771,0,1
1.027344,0.2138672,0.1174316,5.137404,31.91603,7.89313,0,1
1.025635,0.0690918,-0.385498,150.0458,-54.12214,35.70229,0,1
1.023438,0.3339844,1.441895,-250.1374,132.3053,-84.19084,0,10
1.022461,-0.2104492,-0.1157227,-146.7481,65.09161,0.6946565,0,10
1.021973,0.01000977,-0.03930664,0.2824428,1.832061,1.381679,0,0
1.02124,-0.3166504,-1.06665,67.36641,82.62595,-137.2672,0,10
1.02124,0.006347656,-0.02856445,0.4580153,3.183206,0.07633588,0,1
1.020264,0.1484375,0.1989746,9.938931,2.374046,-0.9083969,0,10
1.018799,0.04370117,-0.3933105,-115.5802,47.9542,-27.69466,0,1
1.018555,0.08154297,-0.470459,102.9389,-46.82443,65.84733,0,1
1.016602,0.1660156,-0.7839355,119.0916,-59.96183,41.29008,0,1
1.015381,-0.01342773,0.05395508,-1.251908,170.7252,9.755725,0,10
1.015137,0.1743164,0.1262207,127.5649,-34.61069,25.70992,0,1
1.014648,-0.001953125,-0.8964844,126.458,-49.58779,75.13741,0,1
1.013916,-0.1875,-1.328613,29.44275,7.175572,13.0,0,1
1.013916,0.05859375,-0.7163086,-108.4046,44.66412,-42.48855,0,1
1.013428,0.1083984,-0.1921387,149.4351,-67.66412,37.89313,0,1
1.012695,-0.08862305,1.284912,24.41221,67.50381,144.5878,0,10
1.011719,0.1628418,-1.120117,121.1527,-60.09924,36.0458,0,1
1.01123,-0.09765625,0.8181152,-2.916031,62.89313,183.5954,0,10
1.010742,-0.1176758,0.9465332,-209.1603,3.251908,8.770992,0,10
1.010254,0.07055664,-0.8757324,-99.9313,44.72519,-32.83206,0,1
1.01001,0.2580566,-1.832764,1.358779,15.62595,-4.763359,0,1
1.008545,-0.03735352,-0.03540039,-0.007633588,3.916031,3.40458,0,0
1.008301,0.04980469,-0.4968262,155.6794,-61.06107,43.10687,0,1
1.008057,0.1293945,0.1022949,115.1527,-53.50382,45.40458,0,1
1.005127,0.1921387,0.130127,114.8092,-49.78626,25.19847,0,1
1.004883,0.1899414,-1.253174,-124.1985,74.92367,-43.47328,0,1
1.004395,0.06542969,-0.5395508,-120.4351,71.83969,-41.96183,0,1
1.003906,-0.0168457,-0.07250977,-85.48092,16.54962,-27.94657,0,1
1.003174,0.08520508,-0.4951172,135.3282,-56.59542,40.1145,0,1
1.002686,-0.1003418,0.1464844,-57.52672,-60.47328,0.3053435,0,10
1.002686,0.05688477,-0.7531738,-142.4122,46.96947,-45.0916,0,1
1.002686,-0.0234375,0.2790527,-9.007633,1.969466,15.1145,0,1
1.002197,-0.05102539,-0.2763672,67.48855,15.39695,45.20611,0,1
1.000244,-0.03466797,-0.2746582,5.412214,-46.96947,29.25954,0,1
1.0,0.2092285,0.1977539,128.7863,-51.32061,11.53435,0,1
0.9992676,0.1628418,-0.3918457,157.229,-56.34351,20.9542,0,1
0.9990234,-0.189209,-1.077393,78.05344,-9.687023,42.0916,0,1
0.9987793,-0.1879883,0.8669434,38.25191,107.1221,163.7939,0,10
0.9985352,-0.2485352,0.2373047,11.72519,-28.49618,-3.114504,0,10
0.998291,-0.5637207,-0.5720215,102.7863,-39.22901,-229.9084,0,10
0.9968262,0.1362305,-0.1694336,160.4962,-73.35878,28.98473,0,1
0.9968262,0.05883789,-0.848877,-109.855,46.96183,-31.00763,0,1
0.996582,0.3933105,-1.450195,-250.1374,-166.9008,158.6107,0,10
0.9963379,0.03369141,-1.66333,-216.626,-133.8702,119.2977,0,10
0.9938965,0.02807617,0.2099609,94.69466,-15.1374,15.68702,0,1
0.9936523,0.1989746,0.03833008,15.60305,44.0229,19.35878,0,1
0.9916992,0.03173828,-0.4511719,113.6107,-37.93893,39.0458,0,1
0.9909668,0.03881836,-0.06591797,-15.27481,17.32825,0.7099237,0,1
0.9907227,0.197998,-1.075684,154.7634,-68.34351,10.73282,0,10
0.9892578,0.1601563,0.03100586,130.1298,-62.78626,32.94656,0,1
0.9890137,0.03149414,-0.6682129,-104.8931,50.83206,-48.54962,0,1
0.9873047,-0.06884766,1.281982,-69.69466,152.7252,171.9618,0,10
0.9870605,0.1489258,0.2558594,127.0076,-44.9313,39.65649,0,1
0.9853516,-0.02124023,-0.7900391,98.54962,-33.89313,53.75573,0,1
0.9838867,-0.3234863,0.3808594,47.61832,-60.9084,1.0,0,10
0.9836426,0.05981445,0.1533203,-2.465649,-27.92366,33.01527,0,1
0.982666,0.1384277,0.2009277,-3.664122,-10.57252,-7.274809,0,10
0.982666,0.07592773,-0.5556641,126.8779,-47.83206,38.42748,0,1
0.9821777,0.104248,-0.4970703,167.1985,-75.84733,25.9542,0,1
0.9816895,0.1506348,0.2565918,148.8244,-58.98473,35.20611,0,1
0.980957,0.1887207,0.4633789,110.9695,-21.03817,16.56489,0,1
0.9804688,0.1669922,0.02905273,-118.0,4.954198,-30.03817,0,1
0.9797363,0.01733398,1.205566,-9.312977,72.53435,205.5267,0,10
0.9746094,0.6745605,0.6994629,-250.1374,-250.1374,-27.73282,0,10
0.9746094,0.1970215,0.2456055,61.1145,-11.56489,8.267176,0,1
0.9746094,0.1340332,0.2353516,9.083969,79.20611,7.564886,0,1
0.9743652,0.104248,-0.4057617,127.5802,-35.84733,53.16031,0,1
0.9724121,0.4350586,-0.08935547,-38.19847,9.59542,-33.90076,0,1
0.9724121,0.2741699,-0.855957,229.1603,-94.29771,50.29771,0,10
0.972168,-0.002197266,-1.319824,-250.1374,-108.1603,123.4198,0,10
0.9707031,-0.4138184,0.3225098,-46.63359,58.17557,3.40458,0,10
0.9702148,0.1049805,-0.2319336,131.7557,-64.96183,37.80153,0,1
0.9689941,0.1760254,0.1540527,114.1985,-28.87786,25.0458,0,1
0.9689941,0.05419922,-0.3054199,-123.8168,42.48092,-40.44275,0,1
0.9667969,0.1875,0.9406738,-14.1145,23.53435,3.366412,0,1
0.9643555,-0.3149414,1.806641,7.183206,88.33588,250.1298,0,10
0.9638672,0.08813477,-0.05151367,-109.5191,37.96183,-26.48855,0,1
0.9621582,-0.3415527,0.4707031,-47.21374,71.59542,0.07633588,0,10
0.9621582,0.2614746,0.9443359,-18.38931,17.15267,-1.839695,0,1
0.9621582,0.0847168,-0.1875,97.39695,-19.55725,30.18321,0,1
0.9616699,-0.1149902,-0.6904297,106.5496,-29.59542,52.71756,0,1
0.9606934,0.1247559,0.2958984,-96.86259,24.13741,-20.39695,0,1
0.9594727,0.1572266,1.999939,-189.084,25.77863,4.114504,0,10
0.9594727,-0.1137695,0.4372559,34.75573,-34.51145,2.748092,0,10
0.9592285,0.05297852,-0.220459,-142.3893,42.40458,-55.64885,0,1
0.9584961,0.994873,1.831055,250.1298,120.1908,25.09924,0,10
0.956543,0.08935547,0.7055664,-59.25191,62.48092,213.3282,0,10
0.9555664,0.1328125,0.01171875,-51.12977,109.4504,18.51145,0,1
0.9536133,0.03125,0.1262207,18.19084,-76.1832,-50.13741,0,10
0.9533691,0.2197266,0.4047852,107.8473,-31.0,23.65649,0,1
0.9528809,0.1875,0.2375488,109.9542,-53.64885,49.43512,0,1
0.9519043,0.09619141,-0.3137207,166.5114,-55.39695,58.77863,0,1
0.9516602,0.28125,0.6235352,6.572519,31.67939,-16.47328,0,1
0.9504395,0.1853027,0.5673828,98.47328,-14.56489,24.19847,0,1
0.9501953,0.1728516,0.3359375,159.5496,-55.54198,17.15267,0,1
0.9499512,0.06591797,-0.008056641,-128.4198,46.43512,-29.67175,0,1
0.9489746,-0.8679199,-0.2790527,-19.89313,12.12977,-61.42748,0,10
0.9489746,0.2629395,0.520752,-71.83969,26.70229,-26.65649,0,1
0.9487305,0.06689453,-0.8041992,-127.1145,44.67176,-30.12214,0,1
0.9484863,-0.642334,-0.6711426,71.58778,-37.29771,-214.771,0,10
0.9462891,-0.6171875,-0.3925781,104.0534,-37.12214,-231.7328,0,10
0.9462891,0.03637695,-0.3876953,-145.4198,54.21374,-42.8168,0,1
0.9460449,-0.3044434,0.197998,-54.24427,55.91603,0.6259542,0,10
0.9453125,0.1872559,0.8562012,-204.4198,66.23664,6.89313,0,10
0.9433594,0.04003906,-1.196045,236.5114,41.0,-170.4657,0,10
0.942627,0.02319336,-0.5180664,-120.458,44.83206,-34.43512,0,1
0.940918,-0.07763672,-0.2912598,165.2214,-43.10687,41.38168,0,1
0.9401855,0.08520508,-0.6433105,-124.4427,82.83206,11.54198,0,10
0.9399414,0.2016602,1.230469,102.3206,0.6564885,2.610687,0,10
0.9399414,0.1804199,0.4025879,-50.16794,30.65649,-26.09924,0,1
0.939209,0.2453613,0.5561523,-31.44275,33.51145,-25.70229,0,1
0.9377441,-0.1970215,-1.599121,178.0305,83.67939,-204.8168,0,10
0.9377441,0.09008789,0.1096191,-102.2672,28.78626,-19.69466,0,1
0.9370117,0.1745605,0.5068359,-42.80916,21.80153,2.648855,0,1
0.9367676,0.05078125,-0.08081055,-139.084,39.96947,-41.29008,0,1
0.9355469,-0.498291,-0.6943359,6.816794,-56.41221,-250.1374,0,10
0.9355469,0.1130371,-0.3859863,-122.6412,51.05344,-45.57252,0,1
0.9353027,-0.05737305,-0.0480957,23.67175,-1.061069,9.458015,0,1
0.9345703,0.1877441,0.1196289,99.24428,-44.89313,48.61069,0,1
0.934082,0.04736328,-0.5202637,-160.2824,71.92367,-47.03817,0,1
0.9335938,-0.09423828,-0.1745605,-118.1908,13.61832,-83.50381,0,1
0.9326172,0.1269531,-0.08520508,18.46565,-0.8396947,3.877863,0,1
0.9313965,0.1599121,-0.2839355,-70.38931,36.82443,-18.51908,0,1
0.9291992,0.7944336,1.999939,250.1298,74.37405,44.70992,0,10
0.9284668,0.03271484,-0.2915039,-137.6107,45.0687,-40.15267,0,1
0.9274902,0.1882324,0.4221191,116.3206,-23.21374,30.78626,0,1
0.927002,-0.04199219,0.4719238,9.022901,-4.076336,-5.671756,0,10
0.9267578,0.2207031,0.6706543,22.39695,2.068702,3.335878,0,1
0.9262695,0.1774902,0.4372559,111.0305,-53.0229,22.70992,0,1
0.9238281,0.2241211,0.4560547,-42.64122,34.21374,-41.12214,0,1
0.9230957,0.2402344,0.434082,-38.59542,21.67939,-17.16031,0,1
0.9230957,0.1845703,0.3830566,107.9084,-13.59542,22.48092,0,1
0.9230957,0.09326172,1.128662,-212.6412,-58.96947,74.64122,0,10
0.9206543,-0.2797852,1.247803,217.0534,97.48855,-4.022901,0,10
0.9204102,-0.05859375,0.4570313,-2.534351,4.48855,4.267176,0,10
0.9194336,0.1147461,-0.1054688,-112.9237,50.89313,-46.10687,0,1
0.9191895,-0.06640625,0.4631348,-1.458015,1.610687,2.244275,0,10
0.9189453,-0.0625,-0.1943359,103.0382,7.725191,26.0458,0,1
0.9174805,0.2165527,0.2844238,29.90076,28.12977,-5.908397,0,1
0.9174805,-0.06274414,0.4365234,-1.633588,2.755725,3.0,0,10
0.9172363,0.2624512,0.4179688,1.694656,34.36641,-20.46565,0,1
0.9172363,-0.02832031,0.3249512,5.694656,-115.1679,-39.78626,0,10
0.9160156,0.2124023,0.5134277,13.91603,0.8778625,-5.320611,0,1
0.9160156,0.046875,-1.229004,250.1298,142.7176,-85.90076,0,10
0.9155273,0.1694336,0.5969238,125.3969,-34.75573,21.38931,0,1
0.9155273,0.08105469,-0.4831543,-123.8931,41.35115,-30.00763,0,1
0.9152832,0.3305664,0.925293,-250.1374,125.9389,175.1221,0,10
0.9135742,0.1806641,1.290527,19.91603,-26.0916,39.29008,0,10
0.9135742,0.03149414,-0.236084,-159.8779,55.1145,-38.85496,0,1
0.9130859,0.1433105,0.2897949,148.7405,-28.06107,22.0687,0,1
-0.9123535,1.045898,-0.9589844,-250.1374,-102.7023,250.1298,0,10
0.9101563,-0.008544922,0.3085938,-4.038168,57.82443,61.59542,0,10
0.9094238,-0.5097656,0.6569824,90.83206,-58.77099,57.75573,0,10
0.9086914,0.2067871,0.6489258,74.60305,-0.2748091,4.320611,0,1
0.9086914,-0.02099609,-0.4384766,100.8473,-4.572519,38.83969,0,1
0.9072266,-0.2963867,-0.8894043,8.091603,-9.282443,156.8626,0,10
0.9067383,0.08911133,-0.5266113,-132.6565,41.49618,-26.90076,0,1
0.9047852,0.1948242,0.3789063,92.93893,-39.12214,39.35878,0,1
0.9042969,-0.2485352,0.02172852,6.580153,-26.77863,-7.114504,0,10
-0.9040527,-0.375,-1.552734,-157.542,-68.68702,232.4198,0,10
0.901123,0.08642578,-0.6796875,-140.4809,50.52672,-44.32824,0,1
0.9008789,0.1987305,0.7258301,94.92367,-10.48855,15.80153,0,1
0.9001465,0.2060547,0.3017578,95.70229,-30.9542,46.16031,0,1
0.8994141,-0.2653809,1.153809,-49.93893,96.37405,203.2672,0,10
0.8991699,0.1918945,0.6408691,-49.58015,2.694656,0.4427481,0,1
0.8986816,0.07983398,-0.6584473,56.0687,-84.90076,66.8855,0,1
0.8974609,-0.6899414,0.2390137,25.59542,10.37405,-8.442748,0,10
0.8974609,-0.08642578,0.4489746,-12.41985,-12.8626,15.84733,0,10
0.895752,-0.03930664,1.103271,12.74809,14.83206,-4.206107,0,1
0.8950195,0.09375,0.1655273,-132.0763,40.76336,-6.793893,0,1
0.8950195,-0.007568359,0.394043,-250.1374,-101.4046,96.64886,0,10
0.8947754,-0.6569824,-0.6943359,62.87023,8.770992,-218.3206,0,10
0.8942871,-0.5280762,0.3981934,-108.2137,42.65649,-27.19847,0,10
0.8918457,0.1293945,0.2727051,-112.8702,27.87023,-21.82443,0,1
0.8916016,-0.1174316,0.9287109,25.0229,90.83206,169.4198,0,10
0.8913574,-0.07373047,0.4765625,-1.725191,6.78626,5.496183,0,10
0.8911133,0.2597656,0.4914551,71.03053,5.114504,13.76336,0,1
0.8908691,0.168457,0.5949707,122.0916,-32.15267,21.48855,0,1
0.8903809,0.215332,0.6569824,48.33588,17.06107,2.129771,0,1
0.8901367,-0.6843262,-0.7819824,66.0687,24.80153,-231.8779,0,10
-0.8901367,0.046875,0.5810547,-250.1374,26.32061,89.48092,0,10
0.8898926,0.4172363,-0.3937988,250.1298,-2.21374,-151.4046,0,10
0.8891602,0.3059082,0.4765625,85.10687,-7.229008,17.93893,0,1
0.8891602,0.06982422,-0.6599121,-166.6031,60.51145,-48.68702,0,1
0.8881836,0.1618652,0.4660645,-70.771,39.49618,-14.84733,0,1
0.8881836,0.09277344,0.03173828,-139.8015,58.48092,-46.53435,0,1
0.8864746,0.03686523,-0.5593262,-141.1908,51.85496,-30.99237,0,1
0.8862305,0.197998,0.7900391,84.40458,-4.664122,6.862596,0,1
0.885498,0.05981445,-0.7473145,-137.084,38.22137,-24.44275,0,1
0.8842773,0.06738281,-0.4020996,-129.4657,37.29008,-26.72519,0,1
0.8837891,0.09863281,0.286377,-122.0305,50.8855,-54.78626,0,1
-0.8835449,-0.6057129,-1.346191,77.16031,19.03053,22.12977,0,10
0.8830566,0.5046387,1.998291,-161.0916,71.41985,-24.0458,0,10
0.8830566,-0.2062988,0.3681641,-39.54198,72.29771,11.25191,0,10
0.8789063,0.1931152,0.5153809,-43.08397,19.76336,-19.50382,0,1
0.8786621,0.09619141,-0.1633301,9.603053,45.83206,-84.80153,0,10
0.8776855,0.1437988,0.182373,-121.771,52.30534,-22.22901,0,1
0.8740234,0.1904297,0.5307617,99.16031,-20.87023,16.25954,0,1
0.8730469,-0.0390625,0.5114746,-95.08397,43.16794,-46.15267,0,1
0.8703613,0.1601563,0.2868652,-100.3282,50.16794,-44.57252,0,1
0.8701172,0.0234375,0.5935059,65.16794,22.75573,14.53435,0,1
0.8693848,0.1191406,0.09838867,-111.2137,23.79389,-9.938931,0,1
0.8681641,-0.3395996,0.6867676,-21.43511,17.87786,-52.22901,0,10
0.8666992,0.1940918,0.6611328,-22.31298,27.51908,-7.664122,0,1
0.862793,0.2075195,0.3300781,36.56488,30.83969,-3.816794,0,1
0.8618164,0.1413574,0.5749512,-55.75573,10.50382,-25.32061,0,1
0.861084,-0.06713867,1.387451,-115.3969,-44.54198,-101.9924,0,10
0.8598633,0.08349609,-0.4428711,-126.3511,34.9313,-27.77863,0,1
0.8583984,0.1577148,0.2976074,-101.3817,42.59542,-30.30534,0,1
0.857666,0.1994629,0.6850586,-30.71756,25.74046,-9.526717,0,1
0.8566895,0.2536621,0.8793945,-181.6107,151.7786,-64.13741,0,10
-0.8566895,-0.1569824,0.2145996,-250.1374,86.45802,179.7863,0,10
0.8564453,0.2258301,0.4675293,103.7939,-25.36641,37.73283,0,1
0.855957,0.2194824,0.2751465,72.41222,-10.32061,18.54962,0,1
0.8554688,0.1484375,0.8063965,-70.92367,51.43512,-19.25191,0,1
0.8532715,0.04760742,-0.08227539,250.1298,141.1527,-148.458,0,10
0.8527832,0.2138672,0.5402832,70.64886,5.984733,12.93893,0,1
0.8508301,0.2121582,0.6188965,63.45038,3.312977,5.435114,0,1
0.8464355,0.1726074,0.6889648,-50.05344,16.0458,-7.664122,0,1
0.842041,-0.6459961,0.3017578,38.16794,28.07634,-27.83969,0,10
0.8408203,0.1606445,0.6062012,-38.27481,41.8168,-25.01527,0,1
0.8400879,-0.4211426,-1.340332,-250.1374,-59.96947,-53.73283,0,10
0.8395996,0.565918,-0.2507324,-250.1374,-70.68702,-12.0916,0,10
0.8395996,0.2631836,0.6801758,-71.48092,23.9313,-36.39695,0,1
0.8393555,0.2260742,0.607666,58.19084,-11.25191,20.71756,0,1
0.838623,0.2382813,0.6071777,31.25954,29.52672,-4.748092,0,1
0.8383789,0.2138672,0.7736816,19.38931,22.44275,5.305344,0,1
0.8374023,0.1074219,0.270752,44.16794,1.732824,10.45038,0,1
0.8361816,-0.2819824,0.7753906,39.9542,53.72519,125.7863,0,10
0.831543,0.237793,-2.0,-250.1374,-106.374,12.55725,0,10
0.829834,0.2314453,0.8288574,-24.71756,34.49618,-11.38931,0,1
0.8288574,0.1884766,0.2385254,126.6031,-54.70992,59.8168,0,1
-0.8283691,0.2763672,0.02709961,-250.1374,45.58015,195.6031,0,10
0.828125,0.08374023,0.0,-134.5725,40.70992,-39.17557,0,1
0.8273926,0.1408691,1.046387,142.542,-16.69466,28.34351,0,1
0.8269043,-0.6157227,-0.6259766,56.77099,-6.259542,-233.0763,0,10
0.8249512,0.1767578,0.8347168,-56.51908,55.49618,-15.14504,0,1
0.8232422,0.1616211,0.2810059,-114.4122,59.23664,-25.16031,0,1
0.8215332,0.1818848,0.5136719,-75.03053,2.625954,-21.99237,0,1
0.8203125,-0.1606445,-1.587891,-168.1756,-56.67176,36.70992,0,10
0.8156738,0.2578125,0.5727539,92.73283,0.1374046,28.19084,0,1
0.814209,-0.2902832,1.26123,67.08397,73.9542,121.7786,0,10
0.8139648,0.244873,0.8056641,37.54962,31.89313,0.7480916,0,1
0.8134766,-0.5568848,0.357666,4.282443,-0.1908397,-0.9389313,0,10
0.8110352,0.206543,0.890625,-27.53435,38.64885,-9.198473,0,1
0.8098145,0.190918,0.3740234,-71.42748,34.26717,-29.38168,0,1
0.8095703,-0.5942383,-0.7756348,20.40458,8.832061,-214.771,0,10
0.809082,-0.008789063,-0.8422852,90.35878,86.59542,6.587786,0,1
0.8088379,-0.6071777,0.2502441,-12.94656,-3.541985,1.748092,0,10
0.807373,0.1660156,0.859375,-64.82442,52.05344,-15.82443,0,1
0.8066406,-0.1716309,1.072998,-48.29771,68.73283,168.0687,0,10
0.8056641,0.255127,0.4880371,52.73283,19.9084,-1.587786,0,1
0.8037109,0.2067871,0.5673828,-81.29771,33.9084,-26.62595,0,1
0.8027344,-0.7050781,1.0896,58.59542,23.22137,-194.7023,0,10
0.8024902,0.2287598,-0.6491699,-250.1374,-96.29771,-157.7176,0,10
-0.8005371,-0.9050293,-1.718018,-41.77099,-6.564886,-250.1374,0,10
0.800293,0.2329102,0.963623,-15.49618,13.81679,2.381679,0,1
0.7995605,-0.8623047,-0.2050781,39.71756,-26.40458,-14.70992,0,10
0.7956543,0.3110352,1.707031,-126.7939,70.68702,-46.94656,0,10
0.7939453,0.260498,0.826416,46.54962,14.59542,6.251908,0,1
0.793457,-0.5944824,0.2463379,-4.870229,1.427481,4.91603,0,10
0.7932129,-0.6811523,0.2219238,-1.396947,1.557252,0.4274809,0,10
0.7910156,0.2072754,0.5722656,110.6794,-32.0229,22.08397,0,1
0.7893066,-0.1118164,-0.2819824,-75.0229,-69.09161,250.1298,0,10
0.7871094,0.1687012,0.8513184,-55.12977,32.9542,-18.48092,0,1
0.7858887,0.2045898,0.418457,78.67939,-14.96947,32.96183,0,1
0.7854004,0.3244629,1.428223,250.1298,234.9008,250.1298,0,10
0.7839355,-0.1494141,0.8671875,-51.65649,71.0229,186.374,0,10
0.7836914,-0.05224609,0.888916,-71.66412,54.41221,215.3282,0,10
0.7832031,-0.6462402,-0.01464844,91.54962,59.12977,-62.12214,0,10
0.7832031,-0.5217285,-0.659668,45.35878,-3.564885,-250.1374,0,10
0.779541,0.2785645,0.7861328,37.15267,20.66412,-0.2900764,0,1
0.779541,0.2619629,0.6689453,-59.21374,50.37405,-59.90076,0,1
0.7790527,-0.2832031,0.449707,209.4122,53.94656,59.40458,0,10
0.7788086,-0.6357422,-0.6552734,-44.25954,-76.25191,-224.7405,0,10
0.776123,-0.6179199,1.103027,-167.6488,-33.73283,14.17557,0,10
0.7744141,-0.7509766,-0.465332,159.0076,-31.96183,-85.36641,0,10
0.7736816,-0.6386719,-0.5605469,46.67939,37.36641,-210.5954,0,10
0.7709961,-1.052002,-0.01538086,-75.61069,-70.13741,-13.83206,0,10
0.770752,-0.6484375,0.2961426,1.931298,4.51145,-3.931298,0,10
0.7700195,0.1691895,0.657959,-86.9771,81.8855,-14.32061,0,1
0.7685547,-0.5429688,-0.5075684,88.20611,18.45038,-205.229,0,10
0.7685547,0.2265625,0.7851563,51.17557,12.54962,8.328244,0,1
0.7670898,-0.6394043,-0.6186523,-12.94656,-25.43511,-190.4962,0,10
0.7668457,0.232666,0.6633301,-88.99236,33.28244,-45.83206,0,1
0.7619629,0.1870117,0.6264648,-53.56488,26.76336,-26.00763,0,1
0.7570801,0.2485352,0.6271973,-2.916031,4.244275,-2.435115,0,1
0.755127,0.2487793,0.8432617,-10.64886,21.41221,-13.98473,0,1
0.7546387,0.2370605,0.5756836,17.13741,29.35878,-11.0229,0,1
0.7492676,0.1914063,0.8051758,-78.64886,38.45038,-16.19084,0,1
0.7487793,0.08520508,0.1896973,-161.3053,11.26718,-8.900764,0,1
0.746582,-0.7919922,-0.7351074,21.77099,-8.167939,-184.1221,0,10
0.746582,0.2316895,0.7836914,-1.519084,5.435114,-3.725191,0,1
0.7463379,-0.04907227,0.8283691,-37.75573,65.91603,218.084,0,10
0.7443848,0.1721191,0.5598145,-62.78626,38.66412,-16.0916,0,1
0.7438965,-0.1140137,0.890625,-250.1374,-60.8168,-40.57252,0,10
0.7426758,-0.126709,0.753418,-28.14504,-46.33588,-66.26717,0,1
0.7416992,0.3166504,0.9660645,-28.12214,36.27481,-31.46565,0,1
0.7399902,-0.6452637,-0.3000488,27.70992,-50.70229,-173.8626,0,10
0.739502,-0.5297852,-1.008789,100.2672,-6.59542,-250.1374,0,10
0.7385254,0.1855469,0.3762207,-90.05344,47.38931,-35.25954,0,1
0.7370605,0.2456055,0.6616211,-9.732824,14.07634,-12.20611,0,1
0.736084,-0.1330566,0.8017578,2.587786,104.9008,201.145,0,10
0.7351074,-0.5742188,0.3867188,-82.56489,-1.366412,-1.366412,0,10
0.7351074,-0.1877441,0.9655762,-83.67939,44.33588,177.0458,0,10
0.7331543,0.230957,-0.4140625,-45.40458,-139.6947,42.29008,0,1
0.7297363,0.171875,0.5012207,25.70992,23.79389,-9.328244,0,1
0.7294922,-0.895752,0.472168,246.5573,-12.35878,-176.0458,0,10
0.7258301,0.2363281,0.623291,37.0687,-7.816794,14.64886,0,1
0.7211914,-0.737793,-0.9277344,-78.44275,-13.25954,-138.2443,0,10
0.7211914,0.4140625,-2.0,-250.1374,-19.37405,37.93893,0,10
0.7194824,0.2351074,0.3330078,130.3359,-49.96183,43.73283,0,1
0.7192383,-0.07836914,1.132813,-134.9924,59.82443,52.87023,0,10
0.7189941,0.2919922,-2.0,218.4046,-44.19084,-51.34351,0,10
0.7175293,-0.3261719,0.5769043,55.58779,-56.40458,-25.52672,0,10
0.7172852,0.2385254,0.8652344,27.49618,6.625954,-3.343511,0,1
0.7128906,0.230957,0.5876465,55.29008,-11.27481,21.0916,0,1
0.7126465,-0.09057617,-0.9487305,61.09924,35.07634,8.442748,0,10
0.7097168,0.2526855,0.8034668,30.1145,9.419847,2.816794,0,1
0.7094727,-0.4316406,1.999939,118.8015,80.40458,-15.82443,0,10
0.7075195,0.885498,-1.193848,250.1298,193.1221,-250.1374,0,10
0.7062988,-0.01147461,1.999939,250.1298,202.6183,3.564885,0,10
0.7060547,0.2966309,0.8811035,-42.14504,-2.412214,-32.50382,0,1
0.7060547,0.2844238,0.9101563,3.778626,26.33588,-15.56489,0,1
0.7033691,0.1572266,0.7824707,101.9313,-7.007634,16.89313,0,1
0.6967773,-0.5393066,-0.9282227,-34.93893,-13.60305,-250.1374,0,10
0.6877441,-0.7321777,-0.9992676,2.816794,4.603054,-218.1527,0,10
-0.6855469,-0.2111816,-0.4057617,-96.64122,-72.29008,250.1298,0,10
0.6818848,-0.6274414,0.3046875,36.06107,6.442748,15.77099,0,10
0.6818848,0.4382324,1.999939,250.1298,250.1298,-10.57252,0,10
0.6799316,-0.564209,-0.6557617,83.66412,35.21374,-250.1374,0,10
0.6791992,-0.7172852,0.4873047,-14.16794,5.900764,-22.93893,0,10
0.668457,-0.2512207,0.3901367,105.4657,-42.07634,-18.9771,0,1
0.6677246,-0.5756836,-0.581543,-0.2977099,-4.29771,-250.1374,0,10
0.6655273,-0.6889648,-0.3952637,44.68702,-12.67176,-217.3053,0,10
0.6640625,-0.5981445,-0.6884766,17.38931,-7.519084,-244.8626,0,10
0.6628418,-0.02246094,1.999939,-114.8473,4.816794,250.1298,0,10
0.6625977,0.2768555,0.8352051,-5.80916,17.56489,-16.83206,0,1
0.6621094,-0.05908203,-1.352051,6.343512,53.94656,31.22901,0,10
0.6616211,-0.2961426,-1.188721,95.1145,38.87786,-243.3664,0,10
0.6584473,-0.2219238,0.7351074,-47.74046,86.05344,155.7099,0,10
0.6574707,-0.2666016,1.064453,-17.58779,51.51908,158.3588,0,10
0.6513672,0.2624512,0.8015137,4.076336,13.48855,-4.320611,0,1
0.6508789,0.3310547,1.999939,226.0305,-38.23664,38.90076,0,10
0.6501465,-0.8603516,0.2006836,115.7252,71.12977,54.67176,0,10
0.6467285,-0.6430664,0.3222656,-4.068702,1.541985,7.244275,0,10
0.6459961,0.6955566,-0.9753418,-250.1374,-117.1756,187.3817,0,10
0.6459961,-0.1738281,0.8496094,-59.0229,60.39695,172.0458,0,10
0.6381836,-0.3413086,0.8239746,-250.1374,-130.2595,55.83969,0,10
0.6376953,-0.5874023,-0.7314453,-27.50382,-7.206107,-206.855,0,10
0.6342773,-0.1125488,0.4885254,187.1603,5.473282,-75.24428,0,10
0.6313477,-0.1196289,1.183594,11.05344,63.48855,149.5649,0,10
0.628418,0.154541,1.106934,-75.75572,-2.458015,-22.16031,0,1
0.6279297,0.2619629,0.7617188,-13.08397,16.13741,5.40458,0,1
0.6274414,0.01757813,1.503662,250.1298,170.2977,19.86259,0,10
-0.625,-0.6469727,0.6784668,-250.1374,-20.35114,98.58778,0,10
0.6223145,0.3227539,-2.0,237.5878,-38.30534,-54.34351,0,10
0.6188965,0.01049805,0.7463379,-97.73283,44.17557,236.1908,0,10
-0.6125488,-0.02148438,-0.623291,37.77863,-32.64122,26.84733,0,10
0.607666,0.1594238,1.286377,-72.0458,42.03817,-36.42748,0,1
-0.607666,-0.1433105,-1.324463,-250.1374,-92.24428,189.2519,0,10
0.6069336,-0.4624023,1.451172,17.0229,-11.38168,-20.29771,0,10
0.6047363,0.2424316,1.797119,-228.2977,107.0992,250.1298,0,10
0.6044922,-0.09692383,0.463623,26.45038,88.0,77.40458,0,10
0.6030273,0.1987305,-2.0,14.23664,23.78626,-250.1374,0,10
0.6018066,-0.1774902,0.8974609,-90.771,75.72519,163.3588,0,10
0.598877,-0.296875,1.125977,-187.4122,-9.755725,109.0458,0,10
0.5976563,-0.2634277,0.7590332,-39.60305,74.15267,202.4122,0,10
0.5944824,-0.6306152,-0.7590332,-60.10687,-59.51908,-202.2061,0,10
0.5930176,-0.06787109,0.8405762,-84.91603,32.43512,188.5114,0,10
-0.5854492,-0.5605469,0.02758789,-233.1985,78.59542,-7.954198,0,10
0.5842285,-0.7441406,0.1362305,-18.77099,13.0687,-110.1679,0,10
0.5842285,0.001464844,-1.0354,-250.1374,-32.48855,61.10687,0,10
0.574707,-0.1474609,0.7932129,-70.65649,42.59542,179.0153,0,10
0.5739746,-0.01806641,0.9836426,-130.626,-51.19847,55.51908,0,10
0.5710449,0.1818848,0.7214355,-88.73283,3.549618,16.0458,0,1
0.5705566,0.4614258,-2.0,250.1298,-16.03053,-1.687023,0,10
0.5700684,0.3120117,0.8945313,20.41221,29.80916,-11.34351,0,1
0.5695801,-0.4453125,0.3044434,22.69466,-67.83206,-2.717557,0,10
0.5666504,-0.1013184,0.7209473,-108.1145,88.03053,219.9237,0,10
0.5651855,-0.8303223,0.1843262,-29.94657,12.07634,-0.8167939,0,10
-0.5534668,0.2165527,-2.0,-101.9924,-170.6107,80.36641,0,10
0.552002,0.1818848,1.462646,250.1298,12.61832,-129.6947,0,10
0.5500488,-0.04931641,-1.799072,-206.4962,-140.4122,161.8168,0,10
0.5488281,-0.1655273,0.2624512,-5.251908,187.9542,-0.1221374,0,0
0.5473633,-0.6052246,0.3791504,-92.30534,24.59542,14.99237,0,10
0.5449219,-0.192627,1.040527,-32.43512,80.9313,175.2672,0,10
0.5444336,-0.07861328,0.8818359,-63.25191,80.86259,229.6718,0,10
0.5427246,-0.6242676,-0.5827637,-23.69466,-36.53435,-227.7099,0,10
-0.5375977,-0.6826172,0.006347656,-174.4275,98.60305,-32.61832,0,10
0.5366211,-0.1196289,0.934082,-63.20611,99.83206,156.7099,0,10
-0.5310059,-0.888916,1.056152,-218.4809,76.35878,158.5114,0,10
0.5302734,-0.7380371,0.317627,-26.17557,19.36641,-6.89313,0,10
0.5290527,-0.7399902,-0.5551758,-7.167939,-18.84733,-150.0687,0,10
0.5290527,-0.1391602,0.5810547,-99.73283,57.45802,168.7328,0,10
0.5288086,-0.1347656,0.8251953,-54.00763,49.94656,192.0382,0,10
0.5268555,-0.7939453,-0.8276367,-20.53435,-16.51908,-183.8092,0,10
0.5229492,-0.7851563,0.402832,-33.24427,21.32825,13.9313,0,10
0.520752,-0.6987305,-0.8967285,-29.60305,-49.0687,-213.2443,0,10
0.5100098,-0.1396484,0.8486328,6.89313,154.9237,182.7023,0,10
0.5068359,-0.7141113,-0.3688965,-72.09924,-53.74809,-239.4962,0,10
-0.5039063,0.6005859,-2.0,-203.2366,-128.6947,208.3588,0,10
0.5009766,-0.8212891,0.2390137,-17.47328,11.8626,-28.01527,0,10
0.5004883,-0.07299805,-0.5925293,-250.1374,-180.9389,71.21374,0,10
0.4980469,-0.6262207,-0.5368652,-176.9313,-21.20611,-137.2214,0,10
0.4973145,-0.4140625,0.6955566,-117.0687,33.8855,-17.0687,0,10
0.4909668,-0.3476563,-1.47876,-59.83969,-46.82443,67.91603,0,10
0.4885254,-0.5141602,1.067139,-199.8473,182.5038,119.0382,0,10
0.487793,-0.1364746,1.05127,-70.17558,-30.27481,-24.46565,0,10
0.4868164,-0.1013184,0.701416,-136.0076,27.41985,192.0153,0,10
0.479248,-0.2731934,0.7102051,-71.03817,46.96947,153.7405,0,10
0.4782715,-0.2832031,0.5732422,-91.52672,5.007634,152.542,0,10
0.4777832,-0.6359863,-0.3969727,-7.358778,-10.61069,-250.1374,0,10
0.4768066,-0.1044922,-0.8271484,-18.22901,-124.4733,196.2519,0,10
0.4755859,-0.6740723,-0.2192383,86.22137,40.65649,-10.22137,0,10
0.4753418,-0.0690918,0.1584473,-222.9008,3.435115,69.98473,0,10
0.4736328,-0.5908203,-0.3735352,-67.05344,-30.96947,-187.0305,0,10
0.4724121,0.4089355,-0.09570313,-5.0,-176.7405,12.62595,0,1
-0.4650879,-0.4072266,0.3325195,-162.5038,-3.381679,43.56488,0,10
0.4645996,0.5683594,-1.640625,-250.1374,13.83969,152.6488,0,10
0.4621582,0.01245117,0.6789551,10.58015,-10.83969,25.67175,0,1
0.4594727,-0.8828125,-0.05688477,-0.6564885,50.99237,11.59542,0,10
0.4572754,-0.4025879,-1.218506,250.1298,53.27481,-112.4198,0,10
-0.4560547,-0.7207031,-2.0,-27.61832,-10.67939,-250.1374,0,10
0.4282227,-0.6557617,-0.1264648,-34.9771,-26.9771,-84.56489,0,10
0.427002,0.1293945,1.094971,-94.25954,23.77099,167.9847,0,10
0.4245605,0.137207,-1.353271,-250.1374,-116.2595,113.3206,0,10
0.4233398,-0.1330566,0.6767578,-71.771,94.14503,194.4046,0,10
0.4230957,-0.9174805,0.4870605,183.0916,155.458,107.9237,0,10
-0.4182129,-0.7414551,-0.1791992,-170.5191,57.48855,-66.41985,0,10
0.4174805,-0.2565918,0.7697754,-73.48092,64.67175,148.9084,0,10
0.4123535,-0.08959961,0.9318848,-250.1374,102.771,110.5802,0,10
0.4101563,0.2619629,-1.162598,115.0,-63.54198,121.0763,0,10
0.4091797,0.2009277,1.606201,-211.7863,-41.1145,250.1298,0,10
0.4067383,0.5847168,1.999939,-179.9542,10.90076,190.4504,0,10
-0.3937988,-0.199707,0.2929688,-250.1374,110.1985,-7.030534,0,10
0.388916,-0.8415527,-0.07177734,-90.83969,3.0,-27.25954,0,10
0.3771973,-0.6677246,-0.2370605,-141.7939,19.44275,-68.09161,0,10
0.3747559,-0.2663574,1.226318,-250.1374,48.64885,189.6107,0,10
0.3737793,-0.5463867,-0.2932129,-162.4809,-32.83969,-186.9771,0,10
0.3718262,-0.6628418,-0.2246094,-108.9542,-43.48855,-134.0305,0,10
0.3710938,-0.5183105,0.2062988,-176.1756,-3.175573,-72.71756,0,10
-0.3688965,-0.5932617,0.08618164,-250.1374,-36.83206,38.29771,0,10
0.3659668,-0.6274414,1.999939,12.54962,100.4504,49.20611,0,10
0.3579102,-0.7451172,-0.004394531,-39.44275,-1.793893,-133.9389,0,10
-0.355957,-0.3469238,-2.0,-250.1374,7.022901,165.8397,0,10
0.3535156,0.1933594,-2.0,134.2443,13.89313,-34.22137,0,10
0.3432617,-0.6838379,-0.2573242,-100.9466,-48.12214,-163.9771,0,10
0.3425293,-0.6652832,-0.5922852,-51.71756,-44.60305,-235.5191,0,10
0.3413086,-0.777832,-0.3330078,-42.27481,-11.24428,-174.3969,0,10
0.3391113,-0.1486816,0.706543,-103.4122,43.73283,151.5343,0,10
0.3317871,-0.1379395,0.666748,-80.9542,89.90839,205.4351,0,10
-0.3308105,-0.4997559,-1.319092,-250.1374,-16.64886,-116.8092,0,10
0.3198242,-0.574707,-0.9897461,4.816794,12.18321,-250.1374,0,10
0.3186035,-0.484375,-0.5505371,-137.0305,-32.26717,97.52672,0,10
0.3166504,-0.1550293,0.6738281,-96.93893,55.0687,173.4962,0,10
0.315918,-0.668457,-0.1740723,-99.41985,-36.67939,-110.084,0,10
0.3105469,-0.2399902,0.753418,-119.8931,70.99236,169.3817,0,10
0.3095703,-0.4772949,0.609375,-118.4962,66.1145,106.626,0,10
-0.309082,-0.1877441,-1.312744,141.5343,8.503817,-200.5649,0,10
0.3078613,-0.7712402,0.008300781,-83.9771,-11.66412,-115.2214,0,10
-0.3022461,-0.4641113,0.2421875,-212.4351,95.32061,142.4351,0,10
-0.2956543,0.06933594,-2.0,-235.4122,-55.30534,-191.4351,0,10
0.2932129,-0.7526855,-0.857666,-52.50382,-29.0687,-215.1679,0,10
0.2890625,-0.472168,-0.9111328,-250.1374,-7.114504,-215.3817,0,10
0.2856445,-0.6391602,-0.6782227,-83.0229,8.38168,-224.3206,0,10
-0.2819824,-0.842041,0.345459,-250.1374,-46.9084,124.2672,0,10
0.2805176,-0.5632324,-2.0,23.00763,11.23664,-250.1374,0,10
0.2746582,-0.03076172,0.7319336,-108.916,54.79389,206.084,0,10
0.2741699,-0.09667969,-0.166748,-250.1374,-136.3359,250.1298,0,10
0.2724609,-0.3781738,0.6767578,-162.7557,33.60305,40.98473,0,10
0.2685547,-0.7116699,-0.4689941,-107.0763,-89.19847,-157.2901,0,10
0.2685547,0.2536621,1.317871,-78.31298,199.3817,250.1298,0,10
0.2658691,-0.7451172,-0.2529297,-101.7481,-37.37405,-173.1374,0,10
0.2658691,-0.2946777,0.8137207,-203.2595,25.87023,201.6488,0,10
-0.2653809,-0.387207,-1.063232,-138.9542,38.36641,-160.5573,0,10
0.2607422,-0.7070313,-0.5952148,-111.5115,-25.72519,-140.0687,0,10
0.2583008,-0.7172852,-1.064209,-66.96183,-31.79389,-206.3206,0,10
-0.2583008,-0.5375977,0.3439941,-146.9618,33.28244,80.09161,0,10
-0.2563477,-0.4628906,-0.9697266,-219.4427,25.93893,-131.084,0,10
0.255127,-0.2429199,0.5888672,-73.56489,63.79389,153.7481,0,10
0.2524414,-0.6904297,-0.1506348,-85.20611,-31.70992,-117.1527,0,10
0.2480469,-0.5808105,-0.1887207,-102.4962,16.00763,-97.53435,0,10
0.2407227,-0.6594238,-0.6022949,-147.9618,-70.47328,35.90076,0,10
0.2390137,-0.2814941,0.8432617,-133.3053,49.68702,115.4046,0,10
0.2382813,-0.7414551,-0.5102539,-58.70229,-23.68702,-181.4122,0,10
0.2338867,-0.7231445,-1.059082,-1.717557,4.099236,-226.8855,0,10
0.2336426,-0.3930664,0.7729492,-96.8168,45.12214,93.32825,0,10
0.2324219,-0.1879883,0.692627,-159.4809,16.65649,120.0076,0,10
-0.2282715,-0.5666504,0.07666016,-250.0382,55.58015,12.71756,0,10
-0.2250977,-0.4714355,0.2932129,-170.6641,22.29008,98.96183,0,10
0.223877,-0.5439453,0.5549316,-227.6641,68.23664,66.22137,0,10
-0.2236328,-0.5839844,0.3249512,-148.7405,22.50382,-16.86259,0,10
0.2226563,-0.5339355,-0.3483887,-168.2061,-28.0229,-180.542,0,10
0.2214355,-0.2324219,0.3425293,-164.1527,-36.77099,205.5573,0,10
0.2160645,-0.2485352,0.5043945,-121.4275,74.16031,156.3588,0,10
0.215332,-0.6235352,0.2487793,-149.3206,-11.84733,5.908397,0,10
0.2145996,-0.2099609,-0.904541,186.8626,-205.5038,-39.35115,0,10
-0.2126465,0.7888184,1.999939,250.1298,193.6412,79.65649,0,10
0.2094727,0.1088867,0.3618164,-250.1374,32.09924,41.36641,0,10
0.204834,-0.2272949,0.5444336,-134.9847,68.25954,153.6947,0,10
0.2033691,-0.6733398,-0.3811035,-116.9695,-15.48855,-168.6794,0,10
0.2004395,-0.6342773,0.1533203,-130.5191,4.320611,-86.71756,0,10
-0.1987305,-0.2697754,-1.378418,168.3893,-5.244275,30.0229,0,10
0.1955566,-0.5976563,-0.3356934,-75.45802,-14.47328,-135.4275,0,10
0.1914063,-0.388916,0.7548828,-139.4809,76.99236,111.4885,0,10
0.1865234,-0.6806641,-0.3483887,-54.16031,-17.84733,-210.7176,0,10
0.1774902,-0.4147949,1.999939,30.9542,131.9084,95.75572,0,10
-0.175293,-0.6035156,0.1877441,-169.3359,-69.06107,-53.89313,0,10
0.1699219,0.2907715,-2.0,-68.89313,-14.64886,-80.39695,0,10
-0.1655273,-0.2114258,0.5129395,-224.0916,76.57252,244.145,0,10
0.1633301,-0.1384277,-2.0,78.57252,28.59542,-250.1374,0,10
0.1599121,-0.2519531,0.6401367,-146.4198,31.53435,157.2061,0,10
-0.1589355,0.09472656,-2.0,73.29771,-9.847328,88.89313,0,10
0.1564941,-0.7019043,-0.489502,-35.73283,-21.86259,-179.9313,0,10
0.1557617,-0.8847656,-0.548584,-40.80916,-16.12214,-64.93893,0,10
-0.1555176,0.5046387,-2.0,44.94656,-69.35114,68.12214,0,10
-0.1489258,-0.5205078,-1.585938,-165.0458,13.71756,-223.2824,0,10
0.1467285,-0.4238281,0.5639648,-134.8397,60.64885,110.771,0,10
0.1433105,0.1030273,-1.436523,-250.1374,-144.7023,78.00764,0,10
0.135498,-0.3532715,0.6530762,-149.0305,-1.839695,115.0992,0,10
-0.1254883,-0.6635742,0.03271484,-163.5573,46.63359,-104.6183,0,10
0.1240234,-0.6000977,0.2272949,-99.90076,5.465649,37.28244,0,10
-0.1191406,-0.5068359,0.4318848,-174.0687,17.9542,76.41222,0,10
0.1164551,-0.3325195,0.6789551,-112.9237,62.54198,144.0458,0,10
0.1132813,-0.5720215,-0.2182617,-233.0153,90.00764,117.3511,0,10
0.112793,-0.7792969,-0.9938965,-72.61832,-2.244275,-133.4657,0,10
-0.1125488,-0.7119141,0.1721191,-165.4504,-2.320611,-47.80916,0,10
0.1105957,-0.144043,1.154297,-156.9542,20.60305,250.1298,0,10
-0.1074219,-0.9538574,-0.3693848,-62.61069,33.0687,-163.5878,0,10
0.1074219,-0.3337402,0.7561035,-143.8931,-2.045802,147.3817,0,10
-0.1071777,-0.4509277,-0.02294922,-188.084,-177.0076,-37.29771,0,10
-0.1064453,-0.5112305,0.3327637,-138.8702,61.35878,109.9847,0,10
-0.09960938,-0.5527344,0.1296387,-200.0305,14.29008,-29.58015,0,10
0.09814453,-0.6652832,0.4091797,-112.4885,24.17557,3.19084,0,10
0.09716797,-0.5776367,0.7280273,-250.1374,0.6870229,39.83969,0,10
-0.09716797,-0.5466309,0.2785645,-169.7939,48.22901,46.85496,0,10
0.09423828,-0.6057129,-0.5808105,-124.3664,-19.10687,-193.7099,0,10
0.09326172,-0.4682617,0.454834,-125.9389,76.08397,72.29771,0,10
0.09033203,-0.5883789,-0.08959961,-167.1679,-7.580153,-116.2595,0,10
0.09033203,0.02099609,-0.7646484,-35.07634,-1.717557,82.16794,0,10
0.09008789,-0.3449707,0.1120605,-190.4962,-75.17558,126.7023,0,10
0.08959961,-0.6591797,0.2897949,-172.1527,-10.70992,-66.58015,0,10
-0.08813477,-0.5183105,0.4206543,-165.3664,23.21374,20.31298,0,10
0.08398438,-0.6335449,0.01391602,-163.5038,-12.17557,-67.94656,0,10
0.0793457,-0.4953613,0.4672852,-132.4122,41.25191,14.40458,0,10
-0.0793457,-0.4824219,0.487793,-131.3206,84.92367,89.73283,0,10
-0.07910156,-0.4897461,0.4616699,-162.6412,63.74809,74.94656,0,10
0.07910156,0.05395508,-1.441895,-250.1374,-138.8397,22.48092,0,10
0.07617188,-0.5708008,0.3510742,-144.4657,65.82442,-22.51145,0,10
-0.07446289,-0.6652832,0.2143555,-158.2366,13.94656,-41.45038,0,10
0.07324219,0.1923828,0.3017578,-250.1374,20.90076,250.1298,0,10
0.07275391,-0.5646973,0.2629395,-164.771,-13.06107,-71.19084,0,10
0.07250977,-0.5993652,0.2216797,-136.4046,30.0,-53.67176,0,10
0.06811523,-0.4748535,0.4501953,-176.8397,9.412213,62.41221,0,10
0.06665039,-0.4316406,0.5305176,-133.2824,65.0687,96.80153,0,10
-0.06567383,-0.7160645,-0.01416016,-136.3512,-80.96183,-27.43511,0,10
0.06518555,-0.3935547,0.5939941,-121.1679,63.00763,76.96947,0,10
0.0637207,-0.6660156,-0.2282715,-88.37405,10.65649,-136.8015,0,10
-0.06298828,-0.467041,0.423584,-157.2366,14.36641,19.76336,0,10
0.06298828,-0.3994141,0.5231934,-133.4657,72.32825,80.58015,0,10
0.0612793,-0.5490723,0.1552734,-250.1374,-112.2443,118.4427,0,10
-0.06030273,-0.2919922,0.6188965,-170.3588,-25.41985,157.1221,0,10
0.05957031,-0.6669922,0.1459961,-162.1221,-11.48092,-20.72519,0,10
-0.05737305,-0.4394531,0.4763184,-183.7405,15.56489,92.14503,0,10
0.05639648,-0.4157715,0.5686035,-122.4427,87.77863,128.855,0,10
0.05615234,-0.5646973,-0.03759766,-176.6947,2.442748,-60.46565,0,10
